"Time (s)","Linear Acceleration x (m/s^2)","Linear Acceleration y (m/s^2)","Linear Acceleration z (m/s^2)","Absolute acceleration (m/s^2)"
-9.415833338E-4,-9.144853784E-1,-4.792180898E0,5.163733153E-1,4.905906915E0
9.030416666E-3,-9.049321244E-1,-4.647110308E0,5.533359043E-1,4.766625325E0
1.900241667E-2,-8.983903326E-1,-4.452849432E0,5.616588311E-1,4.577164394E0
2.897341666E-2,-8.566828743E-1,-4.257557107E0,6.087594688E-1,4.385349034E0
3.894541666E-2,-7.295918879E-1,-4.053410343E0,7.005092990E-1,4.177697094E0
4.891741666E-2,-6.240695259E-1,-3.850386245E0,7.928357378E-1,3.980392633E0
5.888841665E-2,-5.379088298E-1,-3.596605391E0,8.244456395E-1,3.728890835E0
6.886041665E-2,-4.960350182E-1,-3.360904713E0,8.891404029E-1,3.511737730E0
7.883187500E-2,-3.647860037E-1,-3.086187319E0,9.562372025E-1,3.251462837E0
8.880287499E-2,-2.252120890E-1,-2.808211271E0,9.769000932E-1,2.981795570E0
9.877487499E-2,-2.189338604E-1,-2.521994743E0,9.787853086E-1,2.714113151E0
1.087468750E-1,-1.424517681E-1,-2.242874980E0,9.641438806E-1,2.445476253E0
1.187188750E-1,-1.478863896E-1,-1.929541404E0,9.171216687E-1,2.141521088E0
1.286898750E-1,-2.490476058E-1,-1.622804072E0,8.242972664E-1,1.837112885E0
1.386618750E-1,-3.814449769E-1,-1.322591649E0,7.118937548E-1,1.549690827E0
1.486338750E-1,-4.948030464E-1,-1.004334717E0,5.845964348E-1,1.263040487E0
1.586048750E-1,-6.610255368E-1,-6.861596471E-1,4.315339438E-1,1.045940422E0
1.685768750E-1,-8.993220864E-1,-3.809162790E-1,3.100462711E-1,1.024698061E0
1.785488750E-1,-1.066102292E0,-6.922752500E-2,1.980218784E-1,1.086544620E0
1.885198750E-1,-1.188935336E0,2.619260252E-1,1.293100047E-1,1.224293083E0
1.984918750E-1,-1.332718734E0,5.921615624E-1,9.399274908E-2,1.461379204E0
2.084638750E-1,-1.406411777E0,8.821583158E-1,1.004002011E-1,1.663213030E0
2.184358750E-1,-1.330364352E0,1.215729690E0,1.540461389E-1,1.808755982E0
2.284068750E-1,-1.179916371E0,1.533575562E0,2.543246448E-1,1.951598747E0
2.383788750E-1,-1.010261017E0,1.835151556E0,3.815133162E-1,2.129309974E0
2.483508750E-1,-7.666407233E-1,2.161720889E0,4.976670492E-1,2.347008243E0
2.583218750E-1,-4.412804483E-1,2.484158580E0,6.348661172E-1,2.601696998E0
2.682938750E-1,-2.887661337E-1,2.765438889E0,7.348008800E-1,2.875929495E0
2.782658750E-1,-9.204200830E-2,3.075826052E0,7.631785870E-1,3.170428866E0
2.882368750E-1,1.503906789E-1,3.365221712E0,7.366006529E-1,3.448175612E0
2.982088750E-1,2.240313900E-1,3.637300842E0,6.557278132E-1,3.702718791E0
3.081808750E-1,9.951248411E-2,3.902537561E0,5.082037683E-1,3.936746527E0
3.181528750E-1,1.273390179E-2,4.116663768E0,3.010859978E-1,4.127679191E0
3.281238750E-1,-1.392259871E-1,4.328501959E0,8.967056036E-2,4.331668719E0
3.380958750E-1,-4.185032044E-1,4.528395458E0,-7.622784812E-2,4.548331677E0
3.480678750E-1,-7.132780831E-1,4.715787025E0,-2.648519353E-1,4.776772910E0
3.580388750E-1,-9.120921130E-1,4.857202520E0,-4.036906357E-1,4.958557701E0
3.680108750E-1,-1.085448974E0,4.995092145E0,-4.086210080E-1,5.127973882E0
3.779828750E-1,-1.184268234E0,5.132950779E0,-3.657362859E-1,5.280477060E0
3.879538750E-1,-1.140603201E0,5.224112964E0,-2.735023062E-1,5.354169911E0
3.979258750E-1,-9.642301270E-1,5.296778067E0,-1.142686089E-1,5.385039920E0
4.078978750E-1,-7.476263089E-1,5.373784727E0,1.020046953E-1,5.426500931E0
4.178688750E-1,-4.451108131E-1,5.431642926E0,2.518676631E-1,5.455667313E0
4.278408750E-1,-9.083231988E-2,5.472802647E0,3.677664757E-1,5.485897511E0
4.378128750E-1,1.974032430E-1,5.524476246E0,4.726187468E-1,5.548168554E0
4.477848750E-1,4.191712488E-1,5.517909822E0,4.488369513E-1,5.551980543E0
4.577558750E-1,5.863851346E-1,5.481131421E0,3.287620389E-1,5.522203696E0
4.677278750E-1,6.304865527E-1,5.449758185E0,1.730401611E-1,5.488835985E0
4.776998750E-1,5.373964676E-1,5.373827997E0,-1.002329707E-2,5.400640959E0
4.876708750E-1,3.929609219E-1,5.272468852E0,-2.347048974E-1,5.292299356E0
4.976428750E-1,2.199239768E-1,5.153458718E0,-4.555261660E-1,5.178224348E0
5.076148750E-1,-2.268321332E-2,5.022721993E0,-5.910073221E-1,5.057424285E0
5.175858750E-1,-2.279886393E-1,4.864912074E0,-6.929172742E-1,4.919296968E0
5.275578750E-1,-3.562097828E-1,4.671848708E0,-7.196811497E-1,4.740358290E0
5.375298750E-1,-4.353165076E-1,4.460283582E0,-6.441994429E-1,4.527540504E0
5.475018750E-1,-4.421970724E-1,4.248288100E0,-5.058098817E-1,4.301085174E0
5.574728750E-1,-3.463534603E-1,4.003529500E0,-3.557177031E-1,4.034196855E0
5.674448750E-1,-1.551715817E-1,3.773486003E0,-1.704679710E-1,3.780520356E0
5.774168750E-1,5.741614938E-2,3.531252816E0,2.559092402E-2,3.531812277E0
5.873878750E-1,3.263239693E-1,3.267945094E0,1.539946103E-1,3.287805774E0
5.973598750E-1,6.208805276E-1,3.010502129E0,2.329548258E-1,3.082674755E0
6.073318750E-1,8.243626090E-1,2.748880743E0,2.494586102E-1,2.880650734E0
6.173028750E-1,9.744411928E-1,2.468521371E0,2.144097966E-1,2.662537316E0
6.272748750E-1,1.109507489E0,2.179718034E0,1.089125594E-1,2.448272763E0
6.372468750E-1,1.197203810E0,1.903266941E0,-3.541074713E-2,2.248772094E0
6.472188750E-1,1.154432085E0,1.609059023E0,-1.871103162E-1,1.989169336E0
6.571898750E-1,1.097242150E0,1.280446088E0,-3.395250088E-1,1.720104576E0
6.671618750E-1,1.034446124E0,9.713073045E-1,-4.698892665E-1,1.494761715E0
6.771338750E-1,9.807447106E-1,6.704592884E-1,-5.712542582E-1,1.318221253E0
6.871048750E-1,8.448562959E-1,3.191468775E-1,-6.187675631E-1,1.094764900E0
6.970768750E-1,7.728713702E-1,-5.912119746E-3,-6.068123460E-1,9.826425246E-1
7.070488750E-1,7.684285095E-1,-2.972473007E-1,-5.784194362E-1,1.006681368E0
7.170198750E-1,7.374338812E-1,-6.544618911E-1,-4.949527717E-1,1.103225880E0
7.269918750E-1,7.419425230E-1,-9.968222147E-1,-3.477152038E-1,1.290363940E0
7.369638750E-1,8.007425621E-1,-1.297736304E0,-2.054167789E-1,1.538669627E0
7.469348750E-1,9.332185417E-1,-1.608020557E0,-7.282590151E-2,1.860626392E0
7.569068750E-1,9.880918832E-1,-1.932201303E0,5.543278296E-2,2.170898486E0
7.668788750E-1,1.090443008E0,-2.207815660E0,1.565925282E-1,2.467394812E0
7.768508750E-1,1.264554379E0,-2.468037806E0,2.456052768E-1,2.783995392E0
7.868218750E-1,1.393674057E0,-2.766230017E0,2.750547785E-1,3.109664132E0
7.967938750E-1,1.494146909E0,-3.023552529E0,2.788408506E-1,3.384094724E0
8.067658750E-1,1.565498728E0,-3.244718199E0,3.051188225E-1,3.615533149E0
8.167368750E-1,1.716772629E0,-3.486640314E0,2.584399152E-1,3.894965999E0
8.267088750E-1,1.731011622E0,-3.712391955E0,1.567837322E-1,4.099126298E0
8.366808750E-1,1.733456635E0,-3.879480236E0,8.666976015E-2,4.250029465E0
8.466518750E-1,1.742542185E0,-4.086200944E0,4.536386847E-2,4.442471080E0
8.566238750E-1,1.816800508E0,-4.270485885E0,-2.833211700E-2,4.640971503E0
8.665958750E-1,1.771311071E0,-4.377222714E0,-9.741110444E-2,4.723040389E0
8.765668750E-1,1.689750306E0,-4.554258277E0,-1.271874654E-1,4.859290196E0
8.865388750E-1,1.645872946E0,-4.692877634E0,-1.369990567E-1,4.975014270E0
8.965108750E-1,1.642893936E0,-4.787822968E0,-1.492887346E-1,5.064053355E0
9.064828750E-1,1.559214287E0,-4.891928549E0,-1.689868347E-1,5.137185092E0
9.164538750E-1,1.473459607E0,-4.992939785E0,-1.211180008E-1,5.207225794E0
9.264258750E-1,1.413973835E0,-5.069505565E0,-5.639750959E-2,5.263305935E0
9.363978750E-1,1.372907232E0,-5.118892903E0,-3.127087276E-2,5.299897799E0
9.463688750E-1,1.244481180E0,-5.165680568E0,3.800575057E-2,5.313608339E0
9.563408750E-1,1.152494537E0,-5.208488619E0,1.002855957E-1,5.335415125E0
9.663128750E-1,1.164007851E0,-5.204975612E0,1.783564679E-1,5.336524752E0
9.762838750E-1,1.117379230E0,-5.189935403E0,2.424840148E-1,5.314392188E0
9.862558750E-1,1.063116484E0,-5.172638755E0,2.664868899E-1,5.287478001E0
9.962278750E-1,1.092243512E0,-5.117472614E0,2.992897332E-1,5.241287646E0
1.006198875E0,1.163070543E0,-5.022298654E0,3.359073365E-1,5.166144655E0
1.016170875E0,1.204931783E0,-4.950754462E0,3.490939772E-1,5.107220081E0
1.026142875E0,1.193938432E0,-4.836509224E0,3.147322297E-1,4.991629677E0
1.036114875E0,1.242263770E0,-4.690320647E0,2.972268355E-1,4.861138841E0
1.046085875E0,1.295071582E0,-4.512644228E0,2.791565820E-1,4.703094378E0
1.056057875E0,1.329651869E0,-4.380914646E0,2.270076227E-1,4.583876055E0
1.066029875E0,1.333566142E0,-4.147727101E0,1.564270703E-1,4.359645420E0
1.076000875E0,1.359474862E0,-3.908253799E0,8.188676516E-2,4.138758884E0
1.085973375E0,1.362736877E0,-3.694716407E0,2.498981198E-2,3.938096700E0
1.095945375E0,1.294534661E0,-3.457456861E0,-4.442010960E-2,3.692126905E0
1.105916375E0,1.145683116E0,-3.204545488E0,-1.044523215E-1,3.404792487E0
1.115888375E0,9.988624544E-1,-2.962776570E0,-1.726156533E-1,3.131384258E0
1.125860375E0,8.952916007E-1,-2.696462794E0,-1.742540248E-1,2.846545822E0
1.135832375E0,8.021267442E-1,-2.416416247E0,-1.802462697E-1,2.552442656E0
1.145803375E0,5.144647841E-1,-2.166206873E0,-1.677671238E-1,2.232772277E0
1.155775375E0,4.691898664E-1,-1.885178579E0,-1.325599054E-1,1.947205571E0
1.165747375E0,2.807064047E-1,-1.584865583E0,-5.649462819E-2,1.610523718E0
1.175718375E0,1.616187948E-1,-1.285548368E0,1.857076605E-2,1.295800955E0
1.185690375E0,4.922412716E-2,-1.011647245E0,7.968233745E-2,1.015973641E0
1.195662375E0,-7.551898286E-3,-6.988346565E-1,1.553067255E-1,7.159239396E-1
1.205633375E0,-2.872802831E-2,-3.674156427E-1,2.039625764E-1,4.212128758E-1
1.215605375E0,-3.019337710E-2,-4.654851437E-2,2.420115781E-1,2.482901692E-1
1.225577375E0,6.671161428E-3,2.791332114E-1,2.352884495E-1,3.651308102E-1
1.235548375E0,1.261487441E-1,6.508863187E-1,2.222702086E-1,6.992642928E-1
1.245520375E0,1.978956882E-1,1.002529682E0,1.507868278E-1,1.032940044E0
1.255492375E0,2.725062512E-1,1.332721950E0,6.508887489E-2,1.361853154E0
1.265464375E0,3.774694915E-1,1.693632565E0,-3.591476798E-2,1.735558801E0
1.275435375E0,4.350306518E-1,2.040505185E0,-1.467265213E-1,2.091516615E0
1.285407375E0,3.638261467E-1,2.351730840E0,-2.546895111E-1,2.393297757E0
1.295379375E0,3.023236524E-1,2.661565441E0,-3.205969870E-1,2.697797735E0
1.305350375E0,2.153841803E-1,2.960178652E0,-3.457598948E-1,2.988075953E0
1.315322375E0,2.302309186E-2,3.222069594E0,-3.532899392E-1,3.241462064E0
1.325294375E0,-2.129307434E-1,3.437196259E0,-2.980255651E-1,3.456656891E0
1.335265375E0,-4.299040324E-1,3.692981538E0,-1.913548283E-1,3.722841225E0
1.345237375E0,-6.017946310E-1,3.935094273E0,-7.211955786E-2,3.981497827E0
1.355209375E0,-7.875715627E-1,4.109055371E0,2.500386357E-2,4.183925214E0
1.365180375E0,-8.955889316E-1,4.326879941E0,1.124115423E-1,4.420023293E0
1.375152375E0,-8.989957387E-1,4.527141230E0,2.136829877E-1,4.620482818E0
1.385124375E0,-8.408555578E-1,4.692900438E0,2.327881801E-1,4.773315717E0
1.395096375E0,-7.231388276E-1,4.856009104E0,1.970546758E-1,4.913510428E0
1.405067375E0,-5.491871586E-1,5.053938523E0,1.574550108E-1,5.086127526E0
1.415039375E0,-3.713274300E-1,5.217908483E0,4.439323981E-2,5.231292743E0
1.425011375E0,-2.274966327E-1,5.329763380E0,-9.977221012E-2,5.335549353E0
1.434982375E0,-1.027021402E-1,5.485503969E0,-2.043601688E-1,5.490269993E0
1.444954375E0,-3.343659008E-2,5.579351780E0,-3.044925857E-1,5.587754471E0
1.454926375E0,-6.701133890E-2,5.600696456E0,-3.593862462E-1,5.612615236E0
1.464897375E0,-1.866955841E-1,5.629333779E0,-3.757958722E-1,5.644951424E0
1.474869375E0,-3.095002508E-1,5.627822859E0,-3.159297395E-1,5.645174234E0
1.484841375E0,-5.172402747E-1,5.557299591E0,-2.308281934E-1,5.586089679E0
1.494812375E0,-7.516081897E-1,5.482187428E0,-1.248532569E-1,5.534878698E0
1.504784375E0,-9.301580360E-1,5.401874751E0,1.695809484E-2,5.481398761E0
1.514756375E0,-1.059604573E0,5.279320035E0,1.492700692E-1,5.386674618E0
1.524728375E0,-1.190380256E0,5.150360278E0,2.226736665E-1,5.290822215E0
1.534699375E0,-1.181276068E0,5.021318076E0,2.515425579E-1,5.164525344E0
1.544671375E0,-1.086850552E0,4.891619232E0,2.659173346E-1,5.017957240E0
1.554643375E0,-9.640680130E-1,4.741349882E0,1.989550209E-1,4.842458977E0
1.564614375E0,-8.118624314E-1,4.584660290E0,7.955721617E-2,4.656668330E0
1.574586375E0,-5.874735207E-1,4.430343499E0,-1.140207052E-2,4.469138470E0
1.584558375E0,-4.077912515E-1,4.246405297E0,-8.819006363E-2,4.266852369E0
1.594529375E0,-2.999439635E-1,4.011914408E0,-2.303826173E-1,4.029702191E0
1.604501375E0,-2.030292877E-1,3.815706409E0,-2.806335886E-1,3.831395503E0
1.614473375E0,-1.563807494E-1,3.560388322E0,-2.841886958E-1,3.575134005E0
1.624444375E0,-2.071504053E-1,3.253522936E0,-2.745372999E-1,3.271649968E0
1.634416375E0,-3.299607547E-1,2.969400296E0,-2.435002792E-1,2.997583127E0
1.644388375E0,-4.099754789E-1,2.642552635E0,-1.490618992E-1,2.678317340E0
1.654360375E0,-5.470796029E-1,2.289095466E0,-3.381561756E-2,2.353804928E0
1.664331375E0,-7.190533049E-1,1.960410025E0,4.466104229E-2,2.088597551E0
1.674303375E0,-8.200130846E-1,1.641316942E0,1.402045369E-1,1.840108713E0
1.684275375E0,-8.744334130E-1,1.282742874E0,2.167644703E-1,1.567497978E0
1.694246375E0,-8.866772633E-1,9.470653331E-1,2.348721278E-1,1.318443867E0
1.704218375E0,-8.990934603E-1,6.366559500E-1,2.506210184E-1,1.129827750E0
1.714190375E0,-8.057794999E-1,2.863551074E-1,2.339634887E-1,8.865769927E-1
1.724161375E0,-6.658266856E-1,-4.386347294E-2,1.647418110E-1,6.873056407E-1
1.734133375E0,-5.692193540E-1,-3.118390274E-1,1.102855039E-1,6.583442446E-1
1.744105375E0,-4.105041403E-1,-6.239259768E-1,3.885127623E-2,7.478681002E-1
1.754076375E0,-2.848187150E-1,-9.726048017E-1,-9.595262613E-3,1.013495866E0
1.764048375E0,-1.425330078E-1,-1.249462861E0,-8.519511977E-2,1.260448852E0
1.774020375E0,-6.364891581E-2,-1.538548619E0,-1.310630000E-1,1.545432155E0
1.783992375E0,4.452751564E-2,-1.874793924E0,-1.654797113E-1,1.882609490E0
1.793963375E0,1.103413082E-1,-2.165821542E0,-1.602032022E-1,2.174539772E0
1.803935375E0,1.238235897E-1,-2.453883451E0,-1.451793297E-1,2.461290985E0
1.813907375E0,1.542054755E-1,-2.781946748E0,-1.475615036E-1,2.790122118E0
1.823878375E0,1.455700790E-1,-3.074246719E0,-9.763797641E-2,3.079239633E0
1.833850375E0,1.546160780E-1,-3.309200124E0,-3.898104787E-2,3.313039558E0
1.843822375E0,1.098061510E-1,-3.624383758E0,2.516407728E-2,3.626134064E0
1.853793375E0,1.241740115E-1,-3.880957827E0,5.916447599E-2,3.883394556E0
1.863765375E0,1.051891438E-1,-4.086386885E0,9.829756061E-2,4.088922222E0
1.873737375E0,6.209666278E-2,-4.310331736E0,1.522193956E-1,4.313465708E0
1.883708375E0,8.464513432E-2,-4.522657000E0,1.735453606E-1,4.526776904E0
1.893680375E0,1.370999578E-1,-4.685729413E0,1.527807283E-1,4.690223713E0
1.903652375E0,1.361595428E-1,-4.809698571E0,1.717315543E-1,4.814689138E0
1.913623375E0,1.736689195E-1,-4.978496577E0,1.769180346E-1,4.984665390E0
1.923595375E0,2.664254941E-1,-5.102953978E0,1.322429681E-1,5.111615209E0
1.933567375E0,3.478092343E-1,-5.166175243E0,8.266793489E-2,5.178529896E0
1.943539375E0,3.954113073E-1,-5.239896353E0,5.913757423E-2,5.255127129E0
1.953510375E0,4.797956192E-1,-5.322768356E0,4.203445931E-2,5.344514356E0
1.963482375E0,5.778583959E-1,-5.316067446E0,-3.091889779E-2,5.347471309E0
1.973454375E0,6.908271139E-1,-5.327201715E0,-1.098422849E-1,5.372930814E0
1.983425375E0,7.183302967E-1,-5.362136489E0,-1.350262519E-1,5.411722298E0
1.993397375E0,7.828472317E-1,-5.311741092E0,-1.410500443E-1,5.370971823E0
2.003369375E0,8.961504105E-1,-5.252070256E0,-2.054161942E-1,5.331934297E0
2.013340375E0,9.493445778E-1,-5.230354866E0,-2.692256892E-1,5.322626196E0
2.023312375E0,9.350892122E-1,-5.169820397E0,-2.615658367E-1,5.260214013E0
2.033284375E0,9.808180200E-1,-5.053682415E0,-2.488019496E-1,5.153989945E0
2.043255375E0,1.034126062E0,-4.952109847E0,-2.351750135E-1,5.064396898E0
2.053227375E0,1.005825173E0,-4.844826304E0,-2.391283160E-1,4.953908411E0
2.063199375E0,9.586940563E-1,-4.690255158E0,-1.823179382E-1,4.790702200E0
2.073171375E0,9.782124276E-1,-4.523097880E0,-1.544624241E-1,4.630245418E0
2.083141875E0,9.603219943E-1,-4.399236896E0,-1.294333992E-1,4.504692731E0
2.093113875E0,8.705447222E-1,-4.194892496E0,-9.379050851E-2,4.285296703E0
2.103085875E0,8.384275746E-1,-3.964095293E0,-4.001134554E-2,4.051988796E0
2.113056875E0,8.634535114E-1,-3.761461789E0,-3.695911724E-2,3.859470525E0
2.123028875E0,8.111788188E-1,-3.531928754E0,-3.293329099E-2,3.624033168E0
2.133000875E0,7.480614880E-1,-3.258772566E0,-5.267818708E-2,3.343945218E0
2.142971875E0,7.870859514E-1,-2.997193281E0,-8.966233771E-2,3.100114707E0
2.152943875E0,8.260361552E-1,-2.730375475E0,-1.580683289E-1,2.856968947E0
2.162915875E0,7.995846672E-1,-2.420139754E0,-2.124533182E-1,2.557645105E0
2.172886875E0,8.011805186E-1,-2.117068042E0,-3.185136241E-1,2.285895502E0
2.182858875E0,8.746872552E-1,-1.837973422E0,-4.231653357E-1,2.079012505E0
2.192830875E0,9.198782654E-1,-1.499774562E0,-4.972518969E-1,1.828321418E0
2.202801875E0,9.438191052E-1,-1.165140164E0,-5.958529097E-1,1.613501409E0
2.212773875E0,1.002568200E0,-8.553885931E-1,-6.983920223E-1,1.491503959E0
2.222745875E0,1.042386935E0,-5.014531213E-1,-7.498878658E-1,1.378534572E0
2.232716875E0,1.033531692E0,-1.580823988E-1,-7.482459676E-1,1.285709855E0
2.242688875E0,9.918258420E-1,1.269728726E-1,-7.332601386E-1,1.239964129E0
2.252660875E0,1.019731167E0,4.421600157E-1,-6.795903003E-1,1.302766329E0
2.262632875E0,9.357862003E-1,7.813546568E-1,-5.633657795E-1,1.342978747E0
2.272603875E0,8.356940744E-1,1.074969082E0,-4.575335151E-1,1.436412208E0
2.282575875E0,7.472441203E-1,1.355326116E0,-3.650060052E-1,1.590129567E0
2.292547875E0,6.700502025E-1,1.693217998E0,-2.194617544E-1,1.834153190E0
2.302518875E0,5.478861532E-1,1.967088130E0,-1.305296974E-1,2.046131215E0
2.312490875E0,4.391521349E-1,2.241521934E0,-1.072379351E-1,2.286651516E0
2.322462875E0,3.884152599E-1,2.538658723E0,-1.117765439E-1,2.570631930E0
2.332433875E0,3.458823940E-1,2.843354791E0,-1.546319568E-1,2.868486037E0
2.342405875E0,2.853361570E-1,3.133205949E0,-2.715084422E-1,3.157865272E0
2.352377875E0,2.886296012E-1,3.396420116E0,-4.520727639E-1,3.438509333E0
2.362348875E0,3.501501305E-1,3.672879395E0,-5.958616805E-1,3.737338533E0
2.372320875E0,3.663081070E-1,3.937075894E0,-7.312937200E-1,4.021136498E0
2.382292875E0,4.002025158E-1,4.172559056E0,-8.617217124E-1,4.279366243E0
2.392264875E0,4.749033270E-1,4.413892942E0,-9.321391457E-1,4.536173218E0
2.402235875E0,5.231579127E-1,4.616388452E0,-9.047934723E-1,4.733221711E0
2.412207875E0,5.026632026E-1,4.795093980E0,-8.361851674E-1,4.893342642E0
2.422179875E0,5.000856768E-1,4.946355602E0,-7.191999239E-1,5.023322402E0
2.432150875E0,4.613387369E-1,5.051946377E0,-5.251916840E-1,5.100080580E0
2.442122875E0,3.882724782E-1,5.154163892E0,-3.206303527E-1,5.178703001E0
2.452094875E0,2.724616114E-1,5.224923972E0,-1.356852422E-1,5.233782221E0
2.462065875E0,2.093296991E-1,5.285612224E0,-9.780637622E-3,5.289764755E0
2.472037875E0,9.953419190E-2,5.337591047E0,1.021999741E-1,5.339497175E0
2.482009875E0,-2.556168795E-2,5.366727138E0,1.305408436E-1,5.368375405E0
2.491980875E0,-7.993311904E-2,5.379861739E0,5.843882740E-2,5.380772875E0
2.501952875E0,-1.102663542E-1,5.399632929E0,-4.897043109E-2,5.400980702E0
2.511924875E0,-1.579603747E-1,5.399097324E0,-1.886750311E-1,5.404701811E0
2.521895875E0,-1.705416093E-1,5.371011978E0,-3.666479033E-1,5.386212472E0
2.531867875E0,-7.631950323E-2,5.349311791E0,-5.235234368E-1,5.375410505E0
2.541839875E0,-5.517991830E-2,5.279182041E0,-5.964019632E-1,5.313050267E0
2.551811875E0,-3.313343022E-2,5.185251199E0,-6.241645432E-1,5.222787493E0
2.561782875E0,2.536529459E-2,5.064954677E0,-6.067971432E-1,5.101236326E0
2.571754875E0,8.106051704E-2,4.928631522E0,-4.687876511E-1,4.951539291E0
2.581726875E0,6.950930597E-2,4.729424486E0,-2.937477422E-1,4.739047927E0
2.591697875E0,5.988157304E-2,4.538145690E0,-9.536106150E-2,4.539542470E0
2.601669875E0,6.086079894E-2,4.330577136E0,8.464664181E-2,4.331831878E0
2.611641875E0,-1.204340044E-2,4.100141875E0,2.832975984E-1,4.109935032E0
2.621612875E0,-1.207041641E-1,3.848943152E0,4.218391871E-1,3.873871601E0
2.631584875E0,-1.760764010E-1,3.603068903E0,4.781198072E-1,3.638915631E0
2.641556875E0,-2.255364267E-1,3.343278866E0,4.957865846E-1,3.387356579E0
2.651527875E0,-3.114959420E-1,3.078030453E0,4.695150812E-1,3.129176505E0
2.661499875E0,-3.887489167E-1,2.809455559E0,3.721133323E-1,2.860530473E0
2.671471875E0,-3.947166215E-1,2.538145922E0,2.635257868E-1,2.582137055E0
2.681442875E0,-4.182629570E-1,2.270146394E0,1.855824022E-1,2.315804262E0
2.691414875E0,-4.390739284E-1,1.975680029E0,1.056135786E-1,2.026635566E0
2.701386875E0,-3.907727111E-1,1.681676179E0,3.748416066E-2,1.726888283E0
2.711358875E0,-3.484307568E-1,1.385566746E0,1.384964190E-2,1.428772554E0
2.721329875E0,-3.330777226E-1,1.085322747E0,6.371593952E-2,1.137069020E0
2.731301875E0,-3.143450709E-1,7.719236827E-1,1.252426084E-1,8.428313630E-1
2.741273875E0,-2.574630647E-1,4.430102009E-1,2.212400023E-1,5.581150476E-1
2.751244875E0,-2.803328408E-1,1.031741202E-1,3.698306159E-1,4.754009730E-1
2.761216875E0,-2.911907913E-1,-2.154073316E-1,5.119121090E-1,6.270936157E-1
2.771188875E0,-2.703206717E-1,-5.336858976E-1,6.426032261E-1,8.779708475E-1
2.781159875E0,-2.856452189E-1,-8.820366937E-1,7.969895998E-1,1.222609644E0
2.791131875E0,-3.268502187E-1,-1.211623190E0,9.070200920E-1,1.548401520E0
2.801103875E0,-3.896358662E-1,-1.506466116E0,9.679726374E-1,1.832546669E0
2.811074875E0,-3.914832209E-1,-1.801792606E0,1.017480939E0,2.105939973E0
2.821046875E0,-4.580207343E-1,-2.110695747E0,1.058192763E0,2.405117762E0
2.831018875E0,-5.085694020E-1,-2.383002334E0,1.059337648E0,2.656979340E0
2.840989875E0,-5.251815610E-1,-2.642288926E0,1.019382527E0,2.880390108E0
2.850961875E0,-5.390503525E-1,-2.908415591E0,9.970963030E-1,3.121483232E0
2.860933875E0,-5.787008700E-1,-3.138576617E0,9.460221899E-1,3.328740882E0
2.870904875E0,-6.025393470E-1,-3.367330803E0,9.033948914E-1,3.538091679E0
2.880876875E0,-6.002017398E-1,-3.590907864E0,8.790856040E-1,3.745350840E0
2.890848875E0,-5.784155624E-1,-3.795368038E0,8.710268252E-1,3.936758926E0
2.900820875E0,-5.921462500E-1,-3.959200004E0,8.576146281E-1,4.094069455E0
2.910791875E0,-5.813320805E-1,-4.141914384E0,8.404144585E-1,4.266110431E0
2.920763875E0,-5.381745858E-1,-4.306179044E0,8.631075025E-1,4.424676757E0
2.930735875E0,-5.291832492E-1,-4.457709637E0,9.197531350E-1,4.582265373E0
2.940706875E0,-5.289844438E-1,-4.597701336E0,9.555673309E-1,4.725652446E0
2.950678875E0,-4.762455919E-1,-4.735305031E0,9.806144638E-1,4.859169510E0
2.960650875E0,-4.553215500E-1,-4.831082423E0,1.019864337E0,4.958507675E0
2.970621875E0,-4.293319189E-1,-4.918685993E0,1.086902811E0,5.055606345E0
2.980593875E0,-4.154587785E-1,-5.007404042E0,1.144745807E0,5.153362417E0
2.990565875E0,-3.876918497E-1,-5.055366413E0,1.166958356E0,5.202771026E0
3.000536875E0,-3.585676360E-1,-5.077140859E0,1.196031736E0,5.228424425E0
3.010508875E0,-3.390733114E-1,-5.120444169E0,1.244775295E0,5.280472018E0
3.020480875E0,-3.389792078E-1,-5.122616410E0,1.244647679E0,5.282542345E0
3.030451875E0,-3.108208079E-1,-5.100940197E0,1.232911148E0,5.257021054E0
3.040423875E0,-2.995902435E-1,-5.058484733E0,1.247040360E0,5.218537321E0
3.050395875E0,-3.082759169E-1,-5.017508031E0,1.233080571E0,5.175993487E0
3.060366875E0,-3.212676626E-1,-4.945077986E0,1.182889241E0,5.094726308E0
3.070338875E0,-2.925181458E-1,-4.852012532E0,1.147283206E0,4.994381967E0
3.080310667E0,-2.870248146E-1,-4.753313870E0,1.103164941E0,4.888082332E0
3.090281667E0,-3.076568430E-1,-4.626394792E0,1.055377986E0,4.755208113E0
3.100253667E0,-3.201158343E-1,-4.470034983E0,9.817801063E-1,4.587764061E0
3.110225667E0,-3.140203677E-1,-4.318129583E0,9.239863729E-1,4.427030913E0
3.120197667E0,-3.009823925E-1,-4.158421658E0,8.816689038E-1,4.261502217E0
3.130168667E0,-3.214748733E-1,-3.958061551E0,8.185913341E-1,4.054588649E0
3.140140667E0,-3.111052384E-1,-3.763452181E0,7.423414493E-1,3.848562019E0
3.150112667E0,-2.781352744E-1,-3.546699990E0,7.183468151E-1,3.629388681E0
3.160083667E0,-2.413886486E-1,-3.309811742E0,7.170161350E-1,3.395178108E0
3.170055667E0,-2.310743978E-1,-3.073052133E0,6.649291380E-1,3.152645802E0
3.180027667E0,-2.041228266E-1,-2.841269090E0,6.269525687E-1,2.916769736E0
3.189998667E0,-1.516269448E-1,-2.562522379E0,6.123542639E-1,2.639031909E0
3.199970667E0,-9.979663138E-2,-2.291332610E0,6.213671621E-1,2.376186367E0
3.209942667E0,-6.227873046E-2,-2.009901443E0,6.210596716E-1,2.104589643E0
3.219913667E0,-7.967964225E-3,-1.721417364E0,6.311343511E-1,1.833486242E0
3.229885667E0,4.401530868E-2,-1.415598046E0,6.329855796E-1,1.551298140E0
3.239857667E0,8.011732461E-2,-1.102446318E0,6.649301612E-1,1.289937514E0
3.249828667E0,1.116941803E-1,-8.145884764E-1,6.449981725E-1,1.045013214E0
3.259800667E0,1.318602495E-1,-4.897920191E-1,6.097804292E-1,7.931680271E-1
3.269772667E0,1.010338017E-1,-1.550862855E-1,5.380900204E-1,5.690346695E-1
3.279743667E0,5.261593251E-2,1.585928607E-1,4.740793812E-1,5.026642931E-1
3.289715667E0,4.036904896E-2,4.909760803E-1,3.763771220E-1,6.199571836E-1
3.299687667E0,-2.064869290E-2,8.256303585E-1,2.790315429E-1,8.717513747E-1
3.309658667E0,-8.623623479E-2,1.134282653E0,1.397086565E-1,1.146103108E0
3.319630667E0,-1.438978210E-1,1.448395663E0,3.927340865E-2,1.456055967E0
3.329602667E0,-1.712409729E-1,1.778666283E0,-6.217348058E-2,1.787971689E0
3.339574667E0,-2.021901391E-1,2.054699886E0,-1.264834972E-1,2.068494754E0
3.349545667E0,-2.191644600E-1,2.364536827E0,-1.719970179E-1,2.380892782E0
3.359517667E0,-1.988584688E-1,2.699554217E0,-2.047928627E-1,2.714604534E0
3.369489667E0,-1.419263592E-1,2.936808500E0,-2.086683790E-1,2.947631210E0
3.379460667E0,-1.010766508E-1,3.186591028E0,-1.656562972E-1,3.192494460E0
3.389432667E0,-8.120795824E-3,3.489410141E0,-1.294538462E-1,3.491820066E0
3.399404667E0,6.298498275E-2,3.728114533E0,-9.366303921E-2,3.729822764E0
3.409375667E0,1.088291086E-1,3.958703576E0,-4.491772592E-2,3.960453936E0
3.419347667E0,1.901355194E-1,4.197909075E0,-2.441622754E-2,4.202283697E0
3.429319667E0,1.993817580E-1,4.407975560E0,-1.842926343E-2,4.412520964E0
3.439290667E0,1.991401401E-1,4.580473099E0,-8.929810186E-2,4.585669500E0
3.449262667E0,1.644504552E-1,4.761031610E0,-1.379872910E-1,4.765868907E0
3.459234667E0,9.361392260E-2,4.938689318E0,-2.276192415E-1,4.944818122E0
3.469205667E0,-1.565895315E-2,5.050693318E0,-3.577250522E-1,5.063369966E0
3.479177667E0,-1.187373617E-1,5.164813426E0,-4.855217975E-1,5.188942831E0
3.489149667E0,-2.009692040E-1,5.276057289E0,-5.564666498E-1,5.309126507E0
3.499120667E0,-2.703979828E-1,5.344270322E0,-6.524481100E-1,5.390735467E0
3.509092667E0,-3.221632368E-1,5.397446655E0,-7.066476329E-1,5.453033140E0
3.519064667E0,-2.968202347E-1,5.420931412E0,-6.938820648E-1,5.473214042E0
3.529036667E0,-2.655275811E-1,5.443350806E0,-6.689782617E-1,5.490728987E0
3.539007667E0,-2.016662652E-1,5.417908401E0,-6.268571860E-1,5.457778913E0
3.548979667E0,-1.012665392E-1,5.392839634E0,-5.675670040E-1,5.423569538E0
3.558951667E0,4.889259003E-3,5.357371593E0,-4.686332846E-1,5.377831482E0
3.568922667E0,9.421852469E-2,5.268204478E0,-4.519733977E-1,5.288396307E0
3.578894667E0,1.696179685E-1,5.192053850E0,-4.284137964E-1,5.212459287E0
3.588866667E0,2.100192685E-1,5.096710905E0,-4.181098330E-1,5.118142825E0
3.598837667E0,2.206203071E-1,4.958369876E0,-4.419044924E-1,4.982909264E0
3.608809667E0,1.744895763E-1,4.802210042E0,-5.202835311E-1,4.833462822E0
3.618781667E0,1.410786591E-1,4.652956939E0,-5.888725036E-1,4.692193761E0
3.628752667E0,5.689962097E-2,4.471728922E0,-6.647705323E-1,4.521229587E0
3.638724667E0,-2.073433634E-2,4.247612747E0,-7.575775391E-1,4.314692073E0
3.648696667E0,-7.658869442E-2,4.023867871E0,-8.327054894E-1,4.109839036E0
3.658667667E0,-1.611549279E-1,3.809130045E0,-8.625285550E-1,3.908887069E0
3.668639667E0,-1.948675979E-1,3.541103620E0,-8.730582210E-1,3.652344300E0
3.678611667E0,-1.948395313E-1,3.267233487E0,-8.807321799E-1,3.389464010E0
3.688582667E0,-1.521945084E-1,3.025200275E0,-8.319342417E-1,3.141196341E0
3.698554667E0,-7.963217016E-2,2.720973153E0,-7.792153068E-1,2.831468289E0
3.708526667E0,-3.502372541E-3,2.408734176E0,-7.330081967E-1,2.517799359E0
3.718497667E0,6.450154949E-2,2.133953047E0,-6.837465012E-1,2.241746046E0
3.728469667E0,1.470807894E-1,1.813390558E0,-6.076900861E-1,1.918151536E0
3.738441667E0,2.181001937E-1,1.496849200E0,-5.667384535E-1,1.615338261E0
3.748413667E0,2.851868703E-1,1.187909807E0,-5.656818616E-1,1.346275317E0
3.758384667E0,3.155815012E-1,8.744692272E-1,-5.492827606E-1,1.079814644E0
3.768356667E0,3.102371827E-1,5.236064672E-1,-5.573196854E-1,8.252369804E-1
3.778328667E0,3.105310053E-1,2.118434536E-1,-6.045295199E-1,7.118729483E-1
3.788299667E0,3.127556150E-1,-9.727603376E-2,-6.309782305E-1,7.109235042E-1
3.798271667E0,2.503418139E-1,-4.510115308E-1,-6.347076577E-1,8.178852214E-1
3.808243667E0,2.338129777E-1,-7.602877235E-1,-6.642792930E-1,1.036326643E0
3.818214667E0,1.903344709E-1,-1.071519225E0,-6.997146624E-1,1.293824281E0
3.828186667E0,1.627261844E-1,-1.395625126E0,-7.006718516E-1,1.570092465E0
3.838158667E0,1.366842573E-1,-1.715899932E0,-6.957987821E-1,1.856645122E0
3.848129667E0,9.554522138E-2,-2.020727563E0,-6.485388078E-1,2.124399058E0
3.858101667E0,9.653109848E-2,-2.318214599E0,-6.339750747E-1,2.405277859E0
3.868073667E0,1.108651091E-1,-2.617662207E0,-5.782808572E-1,2.683068254E0
3.878044667E0,1.197388070E-1,-2.886908362E0,-5.218206545E-1,2.936132502E0
3.888016667E0,1.584107565E-1,-3.145152395E0,-4.604582924E-1,3.182624608E0
3.897988667E0,1.758138244E-1,-3.416764918E0,-4.091144764E-1,3.445659249E0
3.907959667E0,2.210362634E-1,-3.667596436E0,-3.466673827E-1,3.690568916E0
3.917931667E0,2.229368277E-1,-3.880106472E0,-2.761107856E-1,3.896301353E0
3.927903667E0,2.271644377E-1,-4.102017662E0,-2.252709997E-1,4.114474402E0
3.937874667E0,2.768059830E-1,-4.312755992E0,-1.769928789E-1,4.325252857E0
3.947846667E0,3.061697133E-1,-4.469739699E0,-1.435684766E-1,4.482513221E0
3.957818667E0,2.941293095E-1,-4.639080327E0,-9.173049789E-2,4.649300250E0
3.967789667E0,2.806207796E-1,-4.802745062E0,-6.530172268E-2,4.811379477E0
3.977761667E0,2.971230291E-1,-4.923825111E0,-4.689702669E-2,4.933004677E0
3.987733667E0,2.624258525E-1,-5.036979259E0,-1.006479403E-2,5.043820841E0
3.997705667E0,2.349303441E-1,-5.152796229E0,1.140558799E-2,5.158161623E0
4.007676667E0,2.163436535E-1,-5.227227775E0,2.705155849E-2,5.231772795E0
4.017648667E0,2.050476917E-1,-5.250370470E0,5.653321981E-2,5.254677025E0
4.027620667E0,1.888432847E-1,-5.303059146E0,6.382937551E-2,5.306804338E0
4.037591667E0,1.407991987E-1,-5.332784051E0,8.521498203E-2,5.335323022E0
4.047563667E0,1.151019285E-1,-5.302755091E0,1.116654468E-1,5.305179467E0
4.057535667E0,7.957775451E-2,-5.292668644E0,1.249304950E-1,5.294740940E0
4.067506667E0,5.890545348E-2,-5.262623311E0,1.584583747E-1,5.265337883E0
4.077478667E0,1.182719965E-2,-5.178997602E0,1.853485501E-1,5.182326710E0
4.087450875E0,2.929756539E-3,-5.078108574E0,1.791294515E-1,5.081267817E0
4.097421875E0,-1.943006921E-2,-5.000110810E0,2.437446928E-1,5.006086007E0
4.107393875E0,-4.096068668E-2,-4.897889786E0,2.813177311E-1,4.906133080E0
4.117365875E0,-3.130376335E-2,-4.729868875E0,3.116822489E-1,4.740230513E0
4.127336875E0,-4.541604117E-2,-4.597121876E0,3.335696197E-1,4.609431728E0
4.137308875E0,-3.526437487E-2,-4.433058946E0,3.769174778E-1,4.449193407E0
4.147280875E0,-5.190782555E-2,-4.246632169E0,4.354725552E-1,4.269217205E0
4.157251875E0,-3.909425545E-2,-4.035281636E0,4.960299750E-1,4.065842099E0
4.167223875E0,-4.016850316E-2,-3.835963503E0,4.935892741E-1,3.867797807E0
4.177195875E0,-3.361386121E-2,-3.595979154E0,5.468457142E-1,3.637476626E0
4.187166875E0,-4.986113562E-2,-3.350752777E0,6.047155344E-1,3.405247595E0
4.197138875E0,-2.572084185E-2,-3.113239462E0,6.654808959E-1,3.183674973E0
4.207110875E0,-2.207825490E-2,-2.849615405E0,6.617891101E-1,2.925535888E0
4.217081875E0,-4.335337646E-2,-2.557652233E0,6.835652375E-1,2.647777539E0
4.227053875E0,-7.018526694E-2,-2.291557728E0,6.570013368E-1,2.384913740E0
4.237025875E0,-6.400714913E-2,-1.992367398E0,6.790476787E-1,2.105879985E0
4.246996875E0,-9.416629261E-2,-1.673999954E0,6.788465345E-1,1.808860347E0
4.256968875E0,-1.665681157E-1,-1.374412013E0,6.266741681E-1,1.519695309E0
4.266940875E0,-2.075513050E-1,-1.064218392E0,5.863003135E-1,1.232633923E0
4.276912875E0,-2.389041301E-1,-7.253599656E-1,5.950524259E-1,9.681475366E-1
4.286883875E0,-2.942458701E-1,-4.107031649E-1,5.617350642E-1,7.555157206E-1
4.296855875E0,-3.230547179E-1,-9.834198117E-2,5.208348870E-1,6.207289872E-1
4.306827875E0,-3.592794980E-1,2.243775451E-1,4.639941768E-1,6.282655780E-1
4.316798875E0,-3.592364113E-1,5.456849688E-1,5.126534629E-1,8.304435305E-1
4.326770875E0,-3.660140286E-1,8.569679260E-1,5.100749139E-1,1.062326086E0
4.336742875E0,-3.628777649E-1,1.182520428E0,5.053081906E-1,1.336177834E0
4.346713875E0,-3.264846215E-1,1.522888606E0,5.643160252E-1,1.656573116E0
4.356685875E0,-3.008379297E-1,1.814590992E0,6.172590546E-1,1.940168206E0
4.366657875E0,-2.539127633E-1,2.129598625E0,6.524720836E-1,2.241736340E0
4.376628875E0,-2.011067049E-1,2.426894458E0,6.381172422E-1,2.517430085E0
4.386600875E0,-1.518812164E-1,2.699516795E0,6.759931663E-1,2.787010152E0
4.396572875E0,-1.506908421E-1,2.984332330E0,6.748647268E-1,3.063395108E0
4.406543875E0,-1.519749089E-1,3.254973046E0,6.365607865E-1,3.320113783E0
4.416515875E0,-1.611308264E-1,3.521392656E0,5.892181472E-1,3.573982010E0
4.426487875E0,-1.670237234E-1,3.775606204E0,5.501539958E-1,3.819131910E0
4.436458875E0,-2.256102844E-1,4.004673216E0,4.822772507E-1,4.039913231E0
4.446430875E0,-2.708644627E-1,4.227778407E0,3.662040997E-1,4.252244496E0
4.456402875E0,-3.151260031E-1,4.419693380E0,3.315078914E-1,4.443297363E0
4.466373875E0,-3.706361064E-1,4.608664280E0,3.010942570E-1,4.633337385E0
4.476345875E0,-3.958554764E-1,4.775647895E0,2.485101736E-1,4.798465555E0
4.486317875E0,-4.066554299E-1,4.925127286E0,2.394786374E-1,4.947686069E0
4.496288875E0,-4.041050206E-1,5.052410061E0,2.717377261E-1,5.075824040E0
4.506260875E0,-4.043157762E-1,5.142934315E0,2.924578464E-1,5.167085852E0
4.516232875E0,-3.480286876E-1,5.234937329E0,2.931945956E-1,5.254679427E0
4.526203875E0,-2.753587240E-1,5.310733616E0,3.601007760E-1,5.330045641E0
4.536175875E0,-2.350502486E-1,5.343303192E0,3.901998302E-1,5.362685291E0
4.546147875E0,-1.544832183E-1,5.391667852E0,3.781804398E-1,5.407121946E0
4.556119875E0,-1.307718726E-1,5.393999721E0,3.583676612E-1,5.407472761E0
4.566090875E0,-9.232928932E-2,5.391173762E0,3.684728559E-1,5.404539895E0
4.576062875E0,-7.621085465E-2,5.361596791E0,2.901084717E-1,5.369980556E0
4.586034875E0,-8.257387695E-2,5.302947464E0,1.983457776E-1,5.307297928E0
4.596005875E0,-9.087221799E-2,5.222068777E0,1.250275040E-1,5.224355649E0
4.605977875E0,-1.378408000E-1,5.153939944E0,6.693190813E-2,5.156217307E0
4.615949875E0,-1.753590572E-1,5.047008403E0,-2.543184321E-2,5.050117959E0
4.625920875E0,-1.941022522E-1,4.884026037E0,-8.065177839E-2,4.888546893E0
4.635892875E0,-2.109659145E-1,4.726828322E0,-8.927879691E-2,4.732376074E0
4.645864875E0,-2.255623737E-1,4.550720127E0,-1.088143079E-1,4.557606018E0
4.655835875E0,-2.127209380E-1,4.373560603E0,-1.126044730E-1,4.380178342E0
4.665807875E0,-1.558056940E-1,4.149756085E0,-5.845340889E-2,4.153091352E0
4.675779875E0,-1.565471940E-1,3.946123291E0,-4.134800076E-2,3.949443722E0
4.685750875E0,-7.293568298E-2,3.702074543E0,-3.243098776E-2,3.702934958E0
4.695722875E0,1.587369215E-2,3.454923263E0,-1.094580498E-3,3.454959902E0
4.705694875E0,4.673412692E-2,3.192116062E0,1.329189062E-2,3.192485819E0
4.715665875E0,1.261183020E-1,2.927579255E0,-2.339236637E-2,2.930387914E0
4.725637875E0,1.941373903E-1,2.653090487E0,-5.568303466E-2,2.660766630E0
4.735609875E0,2.327477247E-1,2.365829646E0,-9.602414489E-2,2.379189369E0
4.745580875E0,2.484416150E-1,2.062353306E0,-1.512089968E-1,2.082759841E0
4.755552875E0,2.762369758E-1,1.760482028E0,-2.312456846E-1,1.796963662E0
4.765524875E0,3.180554947E-1,1.467581547E0,-3.018274248E-1,1.531683613E0
4.775495875E0,3.028700199E-1,1.175241814E0,-3.544897878E-1,1.264352238E0
4.785467875E0,3.110121215E-1,8.557756788E-1,-3.949811715E-1,9.925173439E-1
4.795439875E0,3.508559626E-1,5.406312203E-1,-4.350462931E-1,7.775907021E-1
4.805411875E0,3.690044774E-1,2.085386074E-1,-4.565991300E-1,6.230051530E-1
4.815382875E0,3.671383385E-1,-1.078951621E-1,-4.483481240E-1,5.894471698E-1
4.825354875E0,4.264223079E-1,-4.176385474E-1,-4.620054656E-1,7.547893688E-1
4.835326875E0,4.761911763E-1,-7.292378390E-1,-4.610184556E-1,9.854358825E-1
4.845297875E0,4.908044645E-1,-1.064758675E0,-4.096302374E-1,1.241932763E0
4.855269875E0,5.446720849E-1,-1.352805966E0,-4.112896772E-1,1.515226340E0
4.865241875E0,6.496662971E-1,-1.644719437E0,-4.271876353E-1,1.819246437E0
4.875212875E0,6.943099348E-1,-1.950418888E0,-3.792106827E-1,2.104756723E0
4.885184875E0,7.309042954E-1,-2.240031479E0,-3.734008892E-1,2.385663501E0
4.895156875E0,8.089532954E-1,-2.504822640E0,-3.978176923E-1,2.662104582E0
4.905127875E0,8.801470198E-1,-2.755988619E0,-4.443182230E-1,2.927037876E0
4.915099875E0,9.046508002E-1,-3.021407186E0,-4.371612310E-1,3.184086116E0
4.925071875E0,9.377627054E-1,-3.246011018E0,-4.445725769E-1,3.407877814E0
4.935042875E0,1.015520295E0,-3.462956752E0,-5.052685026E-1,3.643987815E0
4.945014875E0,1.028946306E0,-3.692019671E0,-5.055923653E-1,3.865923356E0
4.954986875E0,1.075566960E0,-3.901752865E0,-5.406762439E-1,4.083240197E0
4.964957875E0,1.102762506E0,-4.054199717E0,-5.736966401E-1,4.240489161E0
4.974929875E0,1.129894757E0,-4.253062937E0,-6.090161981E-1,4.442533875E0
4.984901875E0,1.141224614E0,-4.402199680E0,-6.020736893E-1,4.587401048E0
4.994872875E0,1.166408279E0,-4.528315351E0,-6.458495271E-1,4.720515841E0
5.004844875E0,1.194592590E0,-4.666780926E0,-6.251690948E-1,4.857646762E0
5.014816875E0,1.198808871E0,-4.782242385E0,-6.185355017E-1,4.968860142E0
5.024787875E0,1.197812505E0,-4.854450821E0,-6.279137778E-1,5.039317740E0
5.034759875E0,1.187481645E0,-4.943687518E0,-6.121244683E-1,5.121020923E0
5.044731875E0,1.214184271E0,-5.006372593E0,-5.910032656E-1,5.185296023E0
5.054702875E0,1.209001883E0,-5.039543847E0,-5.642943539E-1,5.213167546E0
5.064674875E0,1.220501748E0,-5.052538115E0,-5.417772746E-1,5.226020334E0
5.074646875E0,1.185109575E0,-5.081572464E0,-5.187328495E-1,5.243657806E0
5.084618500E0,1.198020228E0,-5.056369210E0,-4.699238382E-1,5.217561736E0
5.094590500E0,1.179185907E0,-5.016691175E0,-4.534919196E-1,5.173328200E0
5.104562500E0,1.164618885E0,-4.981847032E0,-4.351153268E-1,5.134633613E0
5.114534500E0,1.160001924E0,-4.927311221E0,-4.225986674E-1,5.079624983E0
5.124505500E0,1.156093499E0,-4.828617237E0,-3.975931227E-1,4.980981519E0
5.134477500E0,1.139720418E0,-4.733246811E0,-3.772377225E-1,4.883123622E0
5.144449500E0,1.136343943E0,-4.615727132E0,-3.872411390E-1,4.769294519E0
5.154420500E0,1.126728197E0,-4.475317943E0,-4.012885630E-1,4.632388113E0
5.164392500E0,1.116473204E0,-4.316456695E0,-4.177140130E-1,4.478034815E0
5.174364500E0,1.102908541E0,-4.149240360E0,-4.257895660E-1,4.314382873E0
5.184335500E0,1.103581409E0,-3.968249740E0,-4.429693069E-1,4.142598186E0
5.194307500E0,1.092881443E0,-3.755515171E0,-4.560108636E-1,3.937795062E0
5.204279500E0,1.098740792E0,-3.558619539E0,-4.742355019E-1,3.754451180E0
5.214250500E0,1.075613738E0,-3.325527304E0,-4.849955481E-1,3.528639602E0
5.224222500E0,1.045583023E0,-3.061722568E0,-4.914613992E-1,3.272449121E0
5.234194500E0,1.041009623E0,-2.820148362E0,-5.020518762E-1,3.047785082E0
5.244165500E0,1.004928941E0,-2.553639874E0,-4.791916019E-1,2.785782363E0
5.254137500E0,9.497099557E-1,-2.295660135E0,-4.565213621E-1,2.525948576E0
5.264109500E0,8.858622345E-1,-2.005271618E0,-4.291031832E-1,2.233829828E0
5.274080500E0,8.211269791E-1,-1.749914355E0,-4.011207479E-1,1.974170109E0
5.284052500E0,7.624112861E-1,-1.453337145E0,-3.589751869E-1,1.679977086E0
5.294024500E0,6.776853506E-1,-1.140819256E0,-2.743923072E-1,1.354997102E0
5.303995500E0,5.763769307E-1,-8.760678560E-1,-2.337395404E-1,1.074401893E0
5.313967500E0,4.859224780E-1,-5.660677779E-1,-1.991298709E-1,7.721438268E-1
5.323939500E0,4.424842438E-1,-2.515758687E-1,-1.803234529E-1,5.399993254E-1
5.333910500E0,3.845672073E-1,6.398374200E-2,-1.317488784E-1,4.115138189E-1
5.343882500E0,3.240177543E-1,3.501102233E-1,-1.391578853E-1,4.969201049E-1
5.353854500E0,2.898103002E-1,6.946135515E-1,-1.293018277E-1,7.636733325E-1
5.363825500E0,2.813807349E-1,9.880320954E-1,-1.744470012E-1,1.042024134E0
5.373797500E0,2.947580680E-1,1.302476057E0,-1.931516594E-1,1.349308624E0
5.383769500E0,3.092293054E-1,1.617976611E0,-2.343067020E-1,1.663842153E0
5.393740500E0,2.998547935E-1,1.941767932E0,-2.782917970E-1,1.984394599E0
5.403712500E0,3.211902967E-1,2.231824912E0,-2.990499973E-1,2.274562935E0
5.413684500E0,3.029294422E-1,2.538419572E0,-3.181481731E-1,2.576151864E0
5.423655500E0,2.797396042E-1,2.831418285E0,-3.106567204E-1,2.862113092E0
5.433627500E0,2.390074614E-1,3.089648870E0,-3.004369569E-1,3.113409236E0
5.443599500E0,1.947990758E-1,3.344195125E0,-2.674680161E-1,3.360524788E0
5.453571500E0,1.133688138E-1,3.583931551E0,-1.986427796E-1,3.591222188E0
5.463542500E0,1.625237245E-2,3.803395681E0,-1.468434656E-1,3.806264028E0
5.473514500E0,-8.210196096E-2,4.008991969E0,-7.114658117E-2,4.010463711E0
5.483485500E0,-1.628210920E-1,4.233620945E0,-2.230137186E-3,4.236751348E0
5.493457500E0,-2.440927300E-1,4.398237607E0,2.086637378E-2,4.405055132E0
5.503429500E0,-2.989095911E-1,4.563471150E0,3.841036876E-2,4.573411335E0
5.513401500E0,-3.219416639E-1,4.730855885E0,4.050013622E-2,4.741970487E0
5.523372500E0,-3.574378809E-1,4.868095298E0,1.720716795E-2,4.881230353E0
5.533344500E0,-3.518236402E-1,4.981957544E0,-2.597448310E-2,4.994432452E0
5.543316500E0,-2.998225607E-1,5.110026185E0,-7.895729184E-2,5.119423350E0
5.553287500E0,-2.690436946E-1,5.232837594E0,-1.250695856E-1,5.241241856E0
5.563259500E0,-2.299439117E-1,5.282394501E0,-1.693108070E-1,5.290106995E0
5.573231500E0,-2.133406149E-1,5.326455610E0,-1.682033443E-1,5.333379411E0
5.583202500E0,-1.935245838E-1,5.361080482E0,-1.587694283E-1,5.366921225E0
5.593174500E0,-2.065342549E-1,5.354804665E0,-1.298888608E-1,5.360360111E0
5.603146500E0,-2.712290914E-1,5.326335742E0,-7.281069875E-2,5.333734063E0
5.613117500E0,-3.064457750E-1,5.289462031E0,-2.083362937E-2,5.298372545E0
5.623089500E0,-3.780939741E-1,5.218306679E0,4.065221865E-2,5.232144135E0
5.633061500E0,-4.880737783E-1,5.119950079E0,1.052498817E-1,5.144237783E0
5.643032500E0,-5.756223110E-1,5.002514600E0,1.434836920E-1,5.037566966E0
5.653004500E0,-6.149791521E-1,4.873068355E0,1.538332272E-1,4.914128531E0
5.662976500E0,-6.972947922E-1,4.719216417E0,1.545629597E-1,4.772956456E0
5.672947500E0,-7.126593746E-1,4.572857101E0,1.261104083E-1,4.629774215E0
5.682919500E0,-6.950301656E-1,4.408686581E0,9.493891994E-2,4.464145798E0
5.692891500E0,-6.881299395E-1,4.230568113E0,6.423053104E-2,4.286648450E0
5.702862500E0,-6.575014199E-1,4.025283481E0,1.586002428E-2,4.078659923E0
5.712834500E0,-5.974539504E-1,3.822709034E0,-3.068266114E-2,3.869237264E0
5.722806500E0,-5.439858045E-1,3.594621431E0,-4.308813214E-2,3.635805327E0
5.732777500E0,-5.194922932E-1,3.353822565E0,-2.807829302E-2,3.393933769E0
5.742749500E0,-5.068809820E-1,3.094885052E0,-1.339829167E-2,3.136147530E0
5.752721500E0,-4.824709397E-1,2.822420590E0,1.980334997E-2,2.863429476E0
5.762692500E0,-4.912617533E-1,2.533444760E0,6.291249555E-2,2.581402419E0
5.772664500E0,-5.349630026E-1,2.242516546E0,1.073291151E-1,2.307939646E0
5.782636500E0,-5.408201585E-1,1.944162952E0,1.477053086E-1,2.023381547E0
5.792608500E0,-5.993682923E-1,1.624067656E0,1.913454545E-1,1.741680563E0
5.802579500E0,-6.431769110E-1,1.309517274E0,1.746867371E-1,1.469362953E0
5.812551500E0,-6.943422407E-1,9.996885198E-1,2.165270734E-1,1.236273537E0
5.822523500E0,-7.408537714E-1,6.672117448E-1,2.312270101E-1,1.023475331E0
5.832494500E0,-7.414338152E-1,3.559556848E-1,2.193746309E-1,8.512072489E-1
5.842466500E0,-7.531362864E-1,2.970677912E-2,1.720029016E-1,7.730988015E-1
5.852438500E0,-7.422297674E-1,-2.679995281E-1,1.557277250E-1,8.043506070E-1
5.862409500E0,-7.036745431E-1,-5.955775058E-1,1.376048283E-1,9.320973751E-1
5.872381500E0,-6.580465266E-1,-9.030878395E-1,1.050405149E-1,1.122330783E0
5.882353500E0,-6.335675968E-1,-1.207953478E0,8.822278976E-2,1.366873353E0
5.892324500E0,-5.647704634E-1,-1.507527385E0,8.232762694E-2,1.611949854E0
5.902296500E0,-5.203657211E-1,-1.815214305E0,9.283039570E-2,1.890608616E0
5.912268500E0,-4.811409174E-1,-2.096602787E0,6.067301195E-2,2.151957491E0
5.922239500E0,-4.601095425E-1,-2.360702223E0,9.896297375E-2,2.407157960E0
5.932211500E0,-4.235911957E-1,-2.637007720E0,1.046990923E-1,2.672863842E0
5.942183500E0,-3.786657587E-1,-2.914446993E0,1.198539241E-1,2.941386407E0
5.952154500E0,-3.777255265E-1,-3.173973321E0,1.504570448E-1,3.199909458E0
5.962126500E0,-3.659183535E-1,-3.427653018E0,1.629723887E-1,3.450979782E0
5.972098500E0,-3.414628126E-1,-3.675593673E0,1.781564383E-1,3.695717172E0
5.982069500E0,-2.988005770E-1,-3.874199615E0,1.973681048E-1,3.890714409E0
5.992041500E0,-3.242659687E-1,-4.080577092E0,2.054747029E-1,4.098594597E0
6.002013500E0,-3.075678191E-1,-4.292131108E0,2.269819132E-1,4.309119191E0
6.011984500E0,-2.806533413E-1,-4.459273183E0,2.258311812E-1,4.473799653E0
6.021956500E0,-2.703434758E-1,-4.595460098E0,2.083351608E-1,4.608117039E0
6.031928500E0,-2.526131465E-1,-4.751108301E0,2.037135215E-1,4.762178355E0
6.041899500E0,-2.059259252E-1,-4.871120648E0,2.051284746E-1,4.879784785E0
6.051871500E0,-1.694188891E-1,-4.968969124E0,1.816343622E-1,4.975173158E0
6.061843500E0,-1.411867686E-1,-5.056476215E0,1.656387556E-1,5.061158129E0
6.071814500E0,-1.109043403E-1,-5.151759517E0,1.631419945E-1,5.155535007E0
6.081786500E0,-4.529801421E-2,-5.167853394E0,1.644810069E-1,5.170668681E0
6.091757875E0,2.030200783E-2,-5.196818161E0,1.256706977E-1,5.198377083E0
6.101728875E0,5.100211926E-2,-5.212611490E0,1.068544125E-1,5.213956044E0
6.111700875E0,1.017595599E-1,-5.202354890E0,1.080670702E-1,5.204472105E0
6.121672875E0,1.611159708E-1,-5.172010179E0,9.554819981E-2,5.175401154E0
6.131643875E0,2.345407003E-1,-5.111974477E0,9.775729615E-2,5.118285737E0
6.141615875E0,2.331038932E-1,-5.059503903E0,9.187024634E-2,5.065704029E0
6.151587875E0,2.428298959E-1,-4.984810401E0,1.058287744E-1,4.991843429E0
6.161558875E0,3.014233091E-1,-4.897888032E0,1.117157511E-1,4.908425775E0
6.171530875E0,3.527682944E-1,-4.778815917E0,1.184541007E-1,4.793282634E0
6.181502875E0,3.556546628E-1,-4.633027874E0,1.169115686E-1,4.648129283E0
6.191474875E0,3.486052596E-1,-4.479115709E0,1.552634378E-1,4.495343135E0
6.201445875E0,3.983379118E-1,-4.315305378E0,1.547313595E-1,4.336412733E0
6.211417875E0,4.077739292E-1,-4.124131247E0,1.510885624E-1,4.146994800E0
6.221389875E0,3.906451687E-1,-3.915877984E0,1.477123709E-1,3.938086207E0
6.231360875E0,4.165875835E-1,-3.705577025E0,1.572176138E-1,3.732233069E0
6.241332875E0,4.510634248E-1,-3.475918860E0,1.489648354E-1,3.508227566E0
6.251304875E0,4.244411250E-1,-3.217239209E0,1.330826283E-1,3.247843805E0
6.261275875E0,4.445346431E-1,-2.985300044E0,8.915601452E-2,3.019532447E0
6.271247875E0,4.726096836E-1,-2.716949683E0,6.519762397E-2,2.758518846E0
6.281219875E0,5.101746089E-1,-2.433441001E0,3.278767705E-2,2.486561535E0
6.291190875E0,5.116046186E-1,-2.115335512E0,-1.514779687E-2,2.176376133E0
6.301162875E0,5.494211204E-1,-1.839251624E0,-7.271131435E-2,1.920936500E0
6.311134875E0,6.216408849E-1,-1.541071692E0,-8.700891693E-2,1.664004177E0
6.321105875E0,6.330770885E-1,-1.221316119E0,-1.204456258E-1,1.380907967E0
6.331077875E0,6.319555926E-1,-9.085883152E-1,-1.537747550E-1,1.117384121E0
6.341049875E0,6.599679948E-1,-6.025228286E-1,-1.728916419E-1,9.102104333E-1
6.351020875E0,6.773547636E-1,-2.775953937E-1,-1.486619496E-1,7.469732616E-1
6.360992875E0,6.674755273E-1,4.273203671E-2,-1.255864978E-1,6.805303630E-1
6.370964875E0,6.887216777E-1,3.554417145E-1,-1.382387030E-1,7.872650766E-1
6.380935875E0,6.898536987E-1,6.951550037E-1,-1.177535677E-1,9.864099084E-1
6.390907875E0,6.829519377E-1,9.982442576E-1,-6.808848739E-2,1.211425189E0
6.400879875E0,6.440590366E-1,1.318667582E0,-5.227527738E-2,1.468478444E0
6.410850875E0,5.809087421E-1,1.618491166E0,-5.983104944E-2,1.720624415E0
6.420822875E0,5.721732212E-1,1.894989622E0,-5.580641091E-2,1.980273269E0
6.430794875E0,5.515647096E-1,2.206177270E0,-5.926737329E-2,2.274852610E0
6.440765875E0,4.837257522E-1,2.491177577E0,-1.099627376E-1,2.540088213E0
6.450737875E0,4.809117796E-1,2.797158279E0,-1.715111142E-1,2.843375923E0
6.460709875E0,4.665548187E-1,3.055102351E0,-2.279186189E-1,3.098914434E0
6.470680875E0,4.369071695E-1,3.313846906E0,-2.641415352E-1,3.352944965E0
6.480652875E0,4.338258331E-1,3.584627370E0,-3.443495464E-1,3.627166228E0
6.490624875E0,4.732730502E-1,3.817415550E0,-3.731476682E-1,3.864697665E0
6.500595875E0,4.865973929E-1,4.045211377E0,-3.928902072E-1,4.093271897E0
6.510567875E0,4.816099372E-1,4.269698850E0,-4.059043550E-1,4.315904858E0
6.520539875E0,5.074700524E-1,4.453256983E0,-3.877054811E-1,4.498815305E0
6.530510875E0,5.429234751E-1,4.606736453E0,-3.527473176E-1,4.652012180E0
6.540482875E0,5.217836709E-1,4.786555291E0,-2.935144383E-1,4.823849136E0
6.550454875E0,5.049526799E-1,4.921290928E0,-2.479312992E-1,4.953337413E0
6.560425875E0,5.111660043E-1,5.012609233E0,-2.141525191E-1,5.043154103E0
6.570397875E0,4.507342266E-1,5.119103987E0,-1.594044542E-1,5.141380822E0
6.580369875E0,3.795291001E-1,5.187704106E0,-1.540717936E-1,5.203849954E0
6.590340875E0,3.361140355E-1,5.238260887E0,-1.684746552E-1,5.251736234E0
6.600312875E0,3.195730665E-1,5.288711833E0,-1.848731714E-1,5.301582583E0
6.610284875E0,2.416969979E-1,5.322523942E0,-2.247903585E-1,5.332748752E0
6.620256875E0,2.071035545E-1,5.314547170E0,-2.940102822E-1,5.326701189E0
6.630227875E0,2.060804379E-1,5.289515825E0,-3.296566629E-1,5.303783586E0
6.640199875E0,1.559385902E-1,5.256529927E0,-3.550762635E-1,5.270816149E0
6.650171875E0,1.571994692E-1,5.196527554E0,-3.944788957E-1,5.213849240E0
6.660142875E0,1.994092765E-1,5.130058746E0,-4.105903137E-1,5.150325349E0
6.670114875E0,2.172038155E-1,5.018429552E0,-4.008552843E-1,5.039096905E0
6.680086875E0,2.120319167E-1,4.896989315E0,-3.355167425E-1,4.913047259E0
6.690057875E0,2.399910362E-1,4.753203358E0,-3.181557745E-1,4.769880602E0
6.700029875E0,2.602005849E-1,4.593539872E0,-2.467869991E-1,4.607517414E0
6.710001875E0,2.394519594E-1,4.421434096E0,-1.663374978E-1,4.431036546E0
6.719972875E0,2.002979071E-1,4.202722503E0,-1.247959542E-1,4.209343146E0
6.729944875E0,1.624580530E-1,3.995318840E0,-9.815720916E-2,3.999825008E0
6.739916875E0,1.332167853E-1,3.790220150E0,-6.985025346E-2,3.793203732E0
6.749887875E0,7.822258919E-2,3.534251853E0,-4.409619212E-2,3.535392398E0
6.759859875E0,2.060591687E-2,3.270796196E0,-7.168803334E-2,3.271646609E0
6.769831875E0,-1.181905009E-2,3.027248554E0,-1.172343349E-1,3.029540788E0
6.779802875E0,-5.733205911E-2,2.764237286E0,-1.172214711E-1,2.767315597E0
6.789774875E0,-9.214005880E-2,2.467834323E0,-1.470223904E-1,2.473926357E0
6.799746875E0,-1.212618240E-1,2.184161333E0,-1.878464806E-1,2.195575428E0
6.809717875E0,-1.396501295E-1,1.906655987E0,-1.998379505E-1,1.922179601E0
6.819689875E0,-1.506734832E-1,1.607193761E0,-1.565252852E-1,1.621812088E0
6.829661875E0,-1.555823486E-1,1.295528396E0,-1.620450568E-1,1.314860560E0
6.839632875E0,-1.315356377E-1,9.959363616E-1,-1.375136391E-1,1.013953086E0
6.849604875E0,-1.550757239E-1,6.654874009E-1,-8.082605283E-2,6.880805271E-1
6.859576875E0,-1.592526093E-1,3.598832595E-1,-2.243342757E-2,3.941834760E-1
6.869547875E0,-1.486038795E-1,4.845002890E-2,9.997587595E-3,1.566220612E-1
6.879519875E0,-1.807826056E-1,-2.828701669E-1,5.925101479E-2,3.408937731E-1
6.889491875E0,-1.993142409E-1,-6.168566930E-1,1.284738711E-1,6.608660091E-1
6.899462875E0,-2.356586514E-1,-9.006688464E-1,1.700206772E-1,9.463859686E-1
6.909434875E0,-2.634175220E-1,-1.219923313E0,1.842107002E-1,1.261560645E0
6.919406875E0,-3.070671147E-1,-1.538232284E0,1.993748327E-1,1.581201789E0
6.929377875E0,-3.574192794E-1,-1.805275208E0,2.178064442E-1,1.853161289E0
6.939349875E0,-3.904909850E-1,-2.089600162E0,2.228514036E-1,2.137422465E0
6.949321875E0,-4.317367325E-1,-2.385511959E0,2.222269027E-1,2.434429853E0
6.959292875E0,-4.910889316E-1,-2.662155426E0,2.296470193E-1,2.716795466E0
6.969264875E0,-5.510437227E-1,-2.899765804E0,2.391125651E-1,2.961328371E0
6.979236875E0,-5.572629309E-1,-3.146997192E0,2.221228222E-1,3.203665377E0
6.989207875E0,-5.684820932E-1,-3.384557285E0,2.120948474E-1,3.438514814E0
6.999179875E0,-6.072418605E-1,-3.584460724E0,2.331413154E-1,3.643000993E0
7.009151875E0,-6.289805292E-1,-3.793454245E0,2.232210024E-1,3.851718997E0
7.019123875E0,-6.383172901E-1,-3.993001004E0,2.493358370E-1,4.051379313E0
7.029094875E0,-6.555279846E-1,-4.163073703E0,2.804944432E-1,4.223692310E0
7.039066875E0,-6.579084592E-1,-4.313438947E0,3.125606104E-1,4.374504912E0
7.049038875E0,-6.897348540E-1,-4.477507140E0,3.571666431E-1,4.544378106E0
7.059009875E0,-6.808026474E-1,-4.598430483E0,3.935433412E-1,4.665182903E0
7.068981875E0,-6.934421349E-1,-4.705916925E0,3.942403293E-1,4.773043216E0
7.078953875E0,-7.140721350E-1,-4.815277984E0,4.387786440E-1,4.887670997E0
7.088924375E0,-7.000164519E-1,-4.893189209E0,4.704670079E-1,4.965346199E0
7.098896375E0,-7.065497652E-1,-4.936565609E0,4.919625056E-1,5.011079693E0
7.108868375E0,-6.920553216E-1,-5.000377443E0,5.070658636E-1,5.073443695E0
7.118839375E0,-6.814572432E-1,-5.024711800E0,5.167277297E-1,5.096971669E0
7.128811375E0,-6.677789978E-1,-5.011546794E0,5.513175186E-1,5.085811741E0
7.138783375E0,-6.647173957E-1,-5.021673587E0,5.665109968E-1,5.097056949E0
7.148754375E0,-6.827520360E-1,-5.009643525E0,5.533698913E-1,5.086147543E0
7.158726375E0,-6.844412966E-1,-4.945672063E0,5.836596378E-1,5.026807199E0
7.168698375E0,-6.829407549E-1,-4.868390583E0,5.610052586E-1,4.947965424E0
7.178669375E0,-6.782365968E-1,-4.815967956E0,5.660596649E-1,4.896322679E0
7.188641375E0,-6.842563784E-1,-4.703055298E0,5.518521003E-1,4.784503806E0
7.198613375E0,-6.937912137E-1,-4.599081863E0,5.642867891E-1,4.685223561E0
7.208584375E0,-6.695555281E-1,-4.481539965E0,5.524800912E-1,4.564837271E0
7.218556375E0,-6.716047579E-1,-4.334681881E0,5.468001059E-1,4.420351832E0
7.228528375E0,-7.112390129E-1,-4.170275719E0,5.474549210E-1,4.265766917E0
7.238499375E0,-6.912093756E-1,-4.006509241E0,5.495996797E-1,4.102675531E0
7.248471375E0,-6.863166448E-1,-3.826117961E0,5.549545598E-1,3.926599515E0
7.258443375E0,-6.977041704E-1,-3.607747260E0,5.455194195E-1,3.714865117E0
7.268414375E0,-6.901320262E-1,-3.409448882E0,5.583330810E-1,3.523117898E0
7.278386375E0,-6.599576890E-1,-3.191510875E0,5.742399196E-1,3.309235154E0
7.288358375E0,-6.268462224E-1,-2.946086277E0,5.945215718E-1,3.070149254E0
7.298329375E0,-6.051307964E-1,-2.690515006E0,6.094155264E-1,2.824259472E0
7.308301375E0,-5.654250592E-1,-2.439943689E0,5.769832870E-1,2.570202408E0
7.318273375E0,-4.882425435E-1,-2.155535120E0,5.178504682E-1,2.269995934E0
7.328244375E0,-4.790342752E-1,-1.879302712E0,5.452481818E-1,2.014583853E0
7.338216375E0,-4.311412302E-1,-1.588475069E0,5.395319438E-1,1.732117353E0
7.348188375E0,-3.656998139E-1,-1.294606290E0,4.869876945E-1,1.430698715E0
7.358159375E0,-3.377073653E-1,-9.887308377E-1,4.781526247E-1,1.149027792E0
7.368131375E0,-3.051197361E-1,-6.867899770E-1,5.061689007E-1,9.060824918E-1
7.378103375E0,-2.963873032E-1,-3.823120093E-1,4.814562650E-1,6.825013122E-1
7.388074375E0,-2.620680942E-1,-5.946384430E-2,4.070691204E-1,4.877713640E-1
7.398046375E0,-2.716623153E-1,2.483727640E-1,3.803135041E-1,5.292710127E-1
7.408018375E0,-2.882340554E-1,5.353985471E-1,3.802480518E-1,7.171604115E-1
7.417989375E0,-2.854589668E-1,8.375557548E-1,3.686845251E-1,9.586004085E-1
7.427961375E0,-2.850097910E-1,1.143869748E0,2.957335297E-1,1.215371097E0
7.437933375E0,-3.009441480E-1,1.432173733E0,2.736648953E-1,1.488818812E0
7.447905375E0,-2.993435276E-1,1.741076288E0,2.457268989E-1,1.783629697E0
7.457876375E0,-2.985369042E-1,2.027735451E0,2.114259990E-1,2.060469921E0
7.467848375E0,-2.990440770E-1,2.327608151E0,1.914366345E-1,2.354534997E0
7.477820375E0,-2.616360398E-1,2.604313599E0,1.951636863E-1,2.624688858E0
7.487791375E0,-2.349851618E-1,2.857416176E0,1.578151445E-1,2.871402244E0
7.497763375E0,-1.712290409E-1,3.122826557E0,1.037951310E-1,3.129239287E0
7.507735375E0,-1.260529777E-1,3.395796803E0,1.314325805E-1,3.400676374E0
7.517706375E0,-6.670757605E-2,3.627243631E0,9.325607300E-2,3.629055381E0
7.527678375E0,6.858509872E-3,3.855805444E0,4.456630826E-2,3.856069089E0
7.537650375E0,1.062910516E-2,4.082555205E0,4.650875330E-2,4.082833947E0
7.547621375E0,3.597802754E-2,4.253780390E0,1.928177834E-2,4.253976235E0
7.557593375E0,8.269543508E-2,4.433257166E0,-2.280414104E-2,4.434087016E0
7.567565375E0,8.276382923E-2,4.613477708E0,-7.517766992E-2,4.614832402E0
7.577536375E0,4.940677956E-2,4.744146606E0,-5.895866314E-2,4.744770192E0
7.587508375E0,2.471709419E-2,4.874179326E0,-9.441616972E-2,4.875156352E0
7.597480375E0,-2.036274578E-2,4.993356691E0,-1.608826303E-1,4.995989282E0
7.607451375E0,-4.349692561E-2,5.076483632E0,-1.771799898E-1,5.079760900E0
7.617423375E0,-6.611512519E-2,5.127259684E0,-1.656562972E-1,5.130361106E0
7.627395375E0,-6.459521458E-2,5.194746493E0,-2.266158593E-1,5.200088308E0
7.637366375E0,-6.117408179E-2,5.227737653E0,-2.809429246E-1,5.235638658E0
7.647338375E0,-2.226418722E-2,5.225787022E0,-2.675159633E-1,5.232677181E0
7.657310375E0,1.365127511E-2,5.214965580E0,-2.944505775E-1,5.223289528E0
7.667281375E0,7.746055081E-2,5.201155626E0,-3.413054860E-1,5.212917553E0
7.677253375E0,1.150613269E-1,5.147887491E0,-3.623601401E-1,5.161907554E0
7.687225375E0,1.766895181E-1,5.076914572E0,-3.468194103E-1,5.091813475E0
7.697196375E0,2.200737751E-1,5.002960743E0,-3.840761143E-1,5.022505662E0
7.707168375E0,2.561747404E-1,4.891174843E0,-4.312619752E-1,4.916828626E0
7.717140375E0,2.872391333E-1,4.746948007E0,-4.108452523E-1,4.773344270E0
7.727111375E0,2.787333349E-1,4.621919333E0,-4.299129860E-1,4.650231798E0
7.737083375E0,2.772198197E-1,4.469518674E0,-4.686052545E-1,4.502559149E0
7.747055375E0,2.560589655E-1,4.256161376E0,-4.697781694E-1,4.289658190E0
7.757026375E0,2.289545263E-1,4.054093298E0,-4.661534439E-1,4.087222978E0
7.766998375E0,1.928363117E-1,3.872981640E0,-5.053245262E-1,3.910565880E0
7.776970375E0,1.775515438E-1,3.637473920E0,-5.396378149E-1,3.681568965E0
7.786941375E0,1.739948653E-1,3.367574632E0,-5.432788761E-1,3.415550475E0
7.796913375E0,1.793887024E-1,3.143945530E0,-5.614040752E-1,3.198710418E0
7.806885375E0,1.892799986E-1,2.890086324E0,-6.042524715E-1,2.958639371E0
7.816856375E0,2.174254981E-1,2.594948114E0,-6.103925961E-1,2.674623091E0
7.826828375E0,2.592936818E-1,2.335332908E0,-6.073456120E-1,2.426907847E0
7.836800375E0,3.090727828E-1,2.060997337E0,-6.371365180E-1,2.179261102E0
7.846771375E0,3.458219484E-1,1.758689856E0,-6.740037974E-1,1.914905728E0
7.856743375E0,3.983615199E-1,1.444744661E0,-6.464330792E-1,1.632131969E0
7.866715375E0,4.445551814E-1,1.159928541E0,-6.537800326E-1,1.403742092E0
7.876687375E0,4.620574328E-1,8.475346130E-1,-6.842604715E-1,1.183226261E0
7.886658375E0,4.842161143E-1,5.394506675E-1,-6.860040381E-1,9.980349735E-1
7.896630375E0,5.009140811E-1,2.277069497E-1,-6.706481534E-1,8.674873586E-1
7.906602375E0,4.900323397E-1,-7.814160526E-2,-6.883493563E-1,8.485650480E-1
7.916573375E0,4.735391716E-1,-3.938596755E-1,-6.876027399E-1,9.231263830E-1
7.926545375E0,4.691104905E-1,-7.115681380E-1,-6.758656240E-1,1.087744551E0
7.936517375E0,4.558541217E-1,-1.004836408E0,-6.637583792E-1,1.287662368E0
7.946488375E0,4.482604158E-1,-1.320306557E0,-6.722397655E-1,1.547918960E0
7.956460375E0,4.257145755E-1,-1.623582337E0,-6.812263513E-1,1.811441925E0
7.966432375E0,4.210732019E-1,-1.906785795E0,-6.582280096E-1,2.060679214E0
7.976403375E0,4.183148510E-1,-2.202899905E0,-6.579889315E-1,2.336815085E0
7.986375375E0,4.224458358E-1,-2.482120240E0,-6.627333623E-1,2.603573867E0
7.996347375E0,4.280517076E-1,-2.740704582E0,-6.757901949E-1,2.855062566E0
8.006318375E0,4.327456331E-1,-2.996154816E0,-6.673042039E-1,3.099920541E0
8.016290375E0,4.332672778E-1,-3.254438025E0,-6.481983536E-1,3.346527828E0
8.026262375E0,4.468634429E-1,-3.467460862E0,-6.476949084E-1,3.555626592E0
8.036233375E0,4.411656967E-1,-3.679646963E0,-6.528275943E-1,3.763058970E0
8.046205375E0,4.559935778E-1,-3.900259486E0,-6.307595446E-1,3.977161274E0
8.056177375E0,4.698587148E-1,-4.102626357E0,-6.014375123E-1,4.173012979E0
8.066148375E0,4.591409512E-1,-4.263799594E0,-6.017481456E-1,4.330461664E0
8.076120375E0,4.501895584E-1,-4.439441181E0,-5.721249086E-1,4.498737106E0
8.086092875E0,4.429639713E-1,-4.590505752E0,-5.279030013E-1,4.641943743E0
8.096063875E0,4.473462036E-1,-4.704532304E0,-5.178059562E-1,4.754036794E0
8.106035875E0,4.096778557E-1,-4.825516459E0,-5.059326732E-1,4.869231244E0
8.116007875E0,4.073504811E-1,-4.919319246E0,-4.421507332E-1,4.955919040E0
8.125978875E0,3.957211366E-1,-5.001960284E0,-4.298920456E-1,5.035971512E0
8.135950875E0,3.595204763E-1,-5.067604635E0,-3.977708781E-1,5.095889852E0
8.145922875E0,3.436456878E-1,-5.108239276E0,-3.649007918E-1,5.132772491E0
8.155893875E0,2.983265871E-1,-5.129840645E0,-3.224446706E-1,5.148614800E0
8.165865875E0,2.820749821E-1,-5.154106590E0,-2.850020252E-1,5.169681536E0
8.175837875E0,2.436774133E-1,-5.136962553E0,-2.688526003E-1,5.149761614E0
8.185808875E0,2.259538448E-1,-5.096330836E0,-2.298446552E-1,5.106512675E0
8.195780875E0,2.066185279E-1,-5.043995333E0,-1.951771349E-1,5.051997055E0
8.205752875E0,1.755016379E-1,-4.988291248E0,-1.583098555E-1,4.993887505E0
8.215723875E0,1.589111320E-1,-4.875432969E0,-1.540881658E-1,4.880455158E0
8.225695875E0,1.539449455E-1,-4.765712891E0,-1.462669392E-1,4.770441534E0
8.235667875E0,1.407621968E-1,-4.636970651E0,-1.199579680E-1,4.640657360E0
8.245638875E0,1.219250262E-1,-4.503719623E0,-1.265232217E-1,4.507145913E0
8.255610875E0,9.801298393E-2,-4.326464789E0,-1.107486033E-1,4.328991726E0
8.265582875E0,7.791714527E-2,-4.143413025E0,-8.942029039E-2,4.145110200E0
8.275553875E0,7.504914081E-2,-3.968525144E0,-6.657404940E-2,3.969792979E0
8.285525875E0,7.962363688E-2,-3.749308936E0,-4.921484470E-2,3.750477239E0
8.295497875E0,4.736256556E-2,-3.531625283E0,-4.174561143E-2,3.532189555E0
8.305468875E0,4.360134409E-2,-3.297554809E0,-7.076300383E-3,3.297850644E0
8.315440875E0,4.686331841E-2,-3.038589229E0,2.259477418E-2,3.039034583E0
8.325412875E0,3.021856124E-2,-2.799513538E0,8.132543245E-2,2.800857554E0
8.335383875E0,7.891772264E-3,-2.522257283E0,1.214267886E-1,2.525190794E0
8.345355875E0,-3.995365910E-2,-2.265206666E0,1.711468327E-1,2.272014255E0
8.355327875E0,-3.536641336E-2,-1.978932250E0,2.332185717E-1,1.992941177E0
8.365299875E0,-7.367562985E-2,-1.682135770E0,2.832602127E-1,1.707408912E0
8.375270875E0,-1.116241325E-1,-1.396649559E0,2.973321219E-1,1.432304551E0
8.385242875E0,-1.209602356E-1,-1.081734896E0,3.506493731E-1,1.143563180E0
8.395214875E0,-1.454214593E-1,-7.739006263E-1,3.765116080E-1,8.728290618E-1
8.405185875E0,-1.733699441E-1,-4.840734422E-1,3.966563988E-1,6.494001337E-1
8.415157875E0,-2.045208393E-1,-1.666117322E-1,3.731050201E-1,4.569415707E-1
8.425128875E0,-2.277311974E-1,1.640945059E-1,3.795030435E-1,4.720286698E-1
8.435100875E0,-2.340879796E-1,4.806083822E-1,3.531987591E-1,6.407269018E-1
8.445072875E0,-2.526174406E-1,7.957534254E-1,3.213607065E-1,8.946014693E-1
8.455044875E0,-2.481666131E-1,1.114110344E0,3.022775873E-1,1.180762578E0
8.465015875E0,-2.204699605E-1,1.436508858E0,2.746892544E-1,1.479060137E0
8.474987875E0,-2.102981259E-1,1.728459166E0,2.839220810E-1,1.764201842E0
8.484959875E0,-2.124154392E-1,2.059706857E0,2.605905211E-1,2.086964320E0
8.494930875E0,-1.826614621E-1,2.331006553E0,2.585404873E-1,2.352403015E0
8.504902875E0,-1.759086224E-1,2.612278676E0,3.018976644E-1,2.635542814E0
8.514874875E0,-1.608053740E-1,2.895645856E0,3.204380158E-1,2.917756641E0
8.524845875E0,-1.656808738E-1,3.156180244E0,3.713590050E-1,3.182268278E0
8.534817875E0,-1.556773111E-1,3.389747858E0,4.279706506E-1,3.420202457E0
8.544789875E0,-1.610949574E-1,3.634443308E0,4.625265987E-1,3.667296088E0
8.554760875E0,-1.852286456E-1,3.867565949E0,5.093720786E-1,3.905359898E0
8.564732875E0,-2.103564702E-1,4.059211950E0,5.101075852E-1,4.096542597E0
8.574704875E0,-2.241045898E-1,4.273287286E0,5.000667465E-1,4.308279685E0
8.584675875E0,-2.553706020E-1,4.474149084E0,4.745880890E-1,4.506490655E0
8.594647875E0,-2.701704530E-1,4.620575058E0,4.569763485E-1,4.650971224E0
8.604619875E0,-2.862361897E-1,4.765919883E0,4.123760533E-1,4.792283119E0
8.614590875E0,-2.995801571E-1,4.902028445E0,3.463680053E-1,4.923373025E0
8.624562875E0,-2.901225416E-1,5.025682438E0,2.863229477E-1,5.042185626E0
8.634534875E0,-2.715918015E-1,5.104044483E0,2.683088458E-1,5.118302632E0
8.644505875E0,-2.400732261E-1,5.199071678E0,2.357011899E-1,5.209945923E0
8.654477875E0,-2.093898158E-1,5.249081159E0,2.317100266E-1,5.258363495E0
8.664449875E0,-1.964069140E-1,5.261929831E0,2.487849927E-1,5.271468030E0
8.674420875E0,-1.456752010E-1,5.274665651E0,2.718850029E-1,5.283676793E0
8.684392875E0,-1.274089287E-1,5.270137568E0,3.013456873E-1,5.280283348E0
8.694364875E0,-1.135609862E-1,5.208484526E0,3.342852458E-1,5.220436167E0
8.704335875E0,-1.082348671E-1,5.157267594E0,3.896268761E-1,5.173097035E0
8.714307875E0,-1.117480570E-1,5.089884866E0,4.044880863E-1,5.107154412E0
8.724279875E0,-1.392841121E-1,5.003497517E0,3.907238503E-1,5.020662565E0
8.734250875E0,-1.394478889E-1,4.876523475E0,3.762426360E-1,4.893003723E0
8.744222875E0,-1.706186281E-1,4.762061890E0,3.434794077E-1,4.777480744E0
8.754194875E0,-1.671392607E-1,4.606021923E0,2.837888376E-1,4.617781891E0
8.764165875E0,-1.625231032E-1,4.445159758E0,2.198470493E-1,4.453559448E0
8.774137875E0,-1.858563442E-1,4.278515866E0,1.710999819E-1,4.285967312E0
8.784109875E0,-1.397452016E-1,4.082541171E0,1.291134652E-1,4.086972158E0
8.794080875E0,-1.437174710E-1,3.866206471E0,7.893039465E-2,3.869681795E0
8.804052875E0,-1.214470711E-1,3.635214556E0,6.093496721E-2,3.637753060E0
8.814024875E0,-7.435292015E-2,3.402184301E0,5.554387093E-2,3.403449940E0
8.823996875E0,-5.030562451E-2,3.147103027E0,4.861258149E-2,3.147880445E0
8.833967875E0,-2.646742165E-3,2.870791097E0,6.458012145E-2,2.871518608E0
8.843939875E0,2.786914542E-2,2.599073324E0,1.006610234E-1,2.601171174E0
8.853911875E0,6.595743310E-2,2.323902771E0,1.082378272E-1,2.327356848E0
8.863882875E0,8.715559982E-2,2.008935483E0,1.017801622E-1,2.013399383E0
8.873854875E0,8.628061881E-2,1.724994106E0,1.122103707E-1,1.730791778E0
8.883826875E0,1.023690317E-1,1.422086116E0,9.799114823E-2,1.429129317E0
8.893797875E0,1.179632635E-1,1.103332756E0,8.116520047E-2,1.112585409E0
8.903769875E0,1.322488884E-1,7.893688506E-1,3.872963587E-2,8.013070170E-1
8.913741875E0,1.406872977E-1,4.885494858E-1,6.001600418E-3,5.084383296E-1
8.923712875E0,1.460336993E-1,1.730074167E-1,-4.568427762E-2,2.309641981E-1
8.933684875E0,1.655403031E-1,-1.231546408E-1,-9.744384885E-2,2.281796686E-1
8.943656875E0,1.730414402E-1,-4.473985362E-1,-1.416406131E-1,5.001708243E-1
8.953627875E0,2.138164504E-1,-7.580985260E-1,-1.987363350E-1,8.123588988E-1
8.963599875E0,2.375689367E-1,-1.045656406E0,-2.333553600E-1,1.097401951E0
8.973571875E0,2.664329493E-1,-1.356160514E0,-2.243430465E-1,1.400174153E0
8.983542875E0,2.999172125E-1,-1.637628518E0,-2.754798710E-1,1.687503084E0
8.993514875E0,3.719001648E-1,-1.923985965E0,-3.284071130E-1,1.986928020E0
9.003486875E0,4.104409539E-1,-2.207091190E0,-3.337684250E-1,2.269606719E0
9.013457875E0,4.208712537E-1,-2.475257948E0,-2.916515154E-1,2.527665945E0
9.023429875E0,4.651532776E-1,-2.754826192E0,-3.041499388E-1,2.810327758E0
9.033401875E0,5.198850434E-1,-2.997697311E0,-3.582477933E-1,3.063463907E0
9.043372875E0,5.228652596E-1,-3.243403745E0,-3.517211312E-1,3.304052615E0
9.053344875E0,5.559726331E-1,-3.468961258E0,-3.258536339E-1,3.528310980E0
9.063316875E0,6.080750522E-1,-3.670325916E0,-3.719186201E-1,3.738899713E0
9.073287875E0,6.215811702E-1,-3.876997508E0,-4.075363495E-1,3.947601639E0
9.083259875E0,6.225095619E-1,-4.062246655E0,-4.037654801E-1,4.129454275E0
9.093232000E0,6.479247770E-1,-4.243994490E0,-3.951449301E-1,4.311314795E0
9.103203000E0,6.965243485E-1,-4.373148374E0,-4.685449916E-1,4.452988578E0
9.113175000E0,6.899088818E-1,-4.506884721E0,-5.350144581E-1,4.590667122E0
9.123147000E0,6.872051293E-1,-4.665667616E0,-5.319938230E-1,4.745916415E0
9.133118000E0,7.048636474E-1,-4.761533886E0,-5.270545703E-1,4.842192089E0
9.143090000E0,7.403450637E-1,-4.829093785E0,-5.709502029E-1,4.918764249E0
9.153062000E0,7.275117409E-1,-4.903072758E0,-6.459554348E-1,4.998665244E0
9.163033000E0,7.366548859E-1,-4.966512709E0,-6.182313734E-1,5.058766543E0
9.173005000E0,7.588702854E-1,-4.986040070E0,-6.379084235E-1,5.083641101E0
9.182977000E0,7.677698938E-1,-4.997422260E0,-6.841791952E-1,5.102136908E0
9.192948000E0,7.665397127E-1,-4.995323110E0,-6.931867578E-1,5.101112034E0
9.202920000E0,7.574865418E-1,-4.982058116E0,-6.765427315E-1,5.084525445E0
9.212892000E0,7.911677465E-1,-4.943579344E0,-6.727046923E-1,5.051480450E0
9.222863000E0,7.829111125E-1,-4.888734215E0,-6.903235225E-1,4.998921744E0
9.232835000E0,7.705164772E-1,-4.809036081E0,-6.650757569E-1,4.915572137E0
9.242807000E0,7.573562220E-1,-4.720096423E0,-6.395228398E-1,4.823057967E0
9.252778000E0,7.885245857E-1,-4.631032804E0,-6.577597207E-1,4.743509640E0
9.262750000E0,7.826191172E-1,-4.498868773E0,-6.498537735E-1,4.612442178E0
9.272722000E0,7.619467248E-1,-4.368690457E0,-6.345860356E-1,4.479812335E0
9.282693000E0,7.549693155E-1,-4.224161904E0,-6.113433534E-1,4.334427662E0
9.292665000E0,7.746846648E-1,-4.047967170E0,-6.158462942E-1,4.167186245E0
9.302637000E0,7.641471782E-1,-3.856995937E0,-6.046547965E-1,3.978183756E0
9.312608000E0,7.219335703E-1,-3.657043966E0,-6.076590959E-1,3.776825152E0
9.322580000E0,7.288699029E-1,-3.443213044E0,-6.187460015E-1,3.573487654E0
9.332552000E0,7.426202153E-1,-3.217337442E0,-6.500145719E-1,3.365302950E0
9.342524000E0,7.139184994E-1,-2.962735054E0,-6.559138278E-1,3.117322822E0
9.352495000E0,6.783110026E-1,-2.726830308E0,-6.724672222E-1,2.889276988E0
9.362467000E0,6.800162700E-1,-2.478858079E0,-6.614744568E-1,2.654186873E0
9.372439000E0,6.596089757E-1,-2.201990079E0,-7.041269714E-1,2.404087997E0
9.382410000E0,5.872194227E-1,-1.918543961E0,-6.918174130E-1,2.122321586E0
9.392382000E0,5.625464384E-1,-1.644251660E0,-6.848230467E-1,1.867887743E0
9.402354000E0,5.452502283E-1,-1.364894500E0,-6.851387233E-1,1.621619523E0
9.412325000E0,5.100902628E-1,-1.049961711E0,-6.625094140E-1,1.342211009E0
9.422297000E0,4.443571070E-1,-7.719640285E-1,-6.385814381E-1,1.095978080E0
9.432269000E0,4.194253103E-1,-4.777911937E-1,-5.867429842E-1,8.651412285E-1
9.442240000E0,4.110273930E-1,-1.517106879E-1,-5.529215195E-1,7.054657025E-1
9.452212000E0,3.636245274E-1,1.297286654E-1,-4.993773597E-1,6.312131739E-1
9.462184000E0,3.393129741E-1,3.952407879E-1,-4.605155951E-1,6.952864073E-1
9.472155000E0,3.459838798E-1,7.331923109E-1,-4.287774567E-1,9.171291715E-1
9.482127000E0,3.163828621E-1,1.019509996E0,-4.004073876E-1,1.140098603E0
9.492099000E0,2.744538674E-1,1.313170615E0,-3.713292207E-1,1.391986846E0
9.502070000E0,2.821568431E-1,1.630553972E0,-3.673963835E-1,1.695080778E0
9.512042000E0,2.970066513E-1,1.929211037E0,-3.886205703E-1,1.990249764E0
9.522014000E0,2.246021147E-1,2.198836675E0,-3.728938625E-1,2.241512585E0
9.531985000E0,2.225826326E-1,2.492425958E0,-3.848461926E-1,2.531765545E0
9.541957000E0,2.200010504E-1,2.780990728E0,-4.093623984E-1,2.819554480E0
9.551929000E0,1.584934580E-1,3.025309618E0,-4.394463229E-1,3.061165061E0
9.561900000E0,9.315345436E-2,3.281320015E0,-4.267514330E-1,3.310265154E0
9.571872000E0,8.584447134E-2,3.540477383E0,-4.242640275E-1,3.566840246E0
9.581844000E0,7.733662639E-2,3.741992315E0,-4.149423963E-1,3.765722325E0
9.591815000E0,9.938658625E-3,3.941347870E0,-3.631167698E-1,3.958051996E0
9.601787000E0,-2.133524738E-2,4.146894457E0,-3.162589377E-1,4.158991290E0
9.611759000E0,-2.989542492E-2,4.317321498E0,-2.824900979E-1,4.326656828E0
9.621730000E0,-7.384750145E-2,4.463243442E0,-2.246839392E-1,4.469505381E0
9.631702000E0,-1.148019115E-1,4.618480586E0,-1.493063128E-1,4.622319199E0
9.641674000E0,-1.079892109E-1,4.747279544E0,-1.136862445E-1,4.749868345E0
9.651645000E0,-8.239750117E-2,4.845178306E0,-8.950216055E-2,4.846705355E0
9.661617000E0,-1.356892622E-1,4.963976187E0,-5.914458632E-2,4.966182562E0
9.671589000E0,-1.389199036E-1,5.052196637E0,-4.709815264E-2,5.054325656E0
9.681560000E0,-1.316104090E-1,5.083967484E0,-6.732368985E-2,5.086116313E0
9.691532000E0,-1.577143348E-1,5.123346142E0,-9.407468319E-2,5.126636280E0
9.701504000E0,-1.712493965E-1,5.162672760E0,-8.252641400E-2,5.166171406E0
9.711475000E0,-1.723744191E-1,5.160316333E0,-9.746489882E-2,5.164114348E0
9.721447000E0,-1.643002183E-1,5.137204043E0,-1.135014907E-1,5.141083790E0
9.731419000E0,-2.273784093E-1,5.099143347E0,-1.008597740E-1,5.105206804E0
9.741391000E0,-2.767031634E-1,5.022013895E0,-7.997584026E-2,5.030266826E0
9.751362000E0,-2.683262778E-1,4.941286066E0,-4.444355328E-2,4.948765726E0
9.761334000E0,-3.131132088E-1,4.843194931E0,9.642058611E-3,4.853315360E0
9.771306000E0,-3.599864263E-1,4.710543827E0,5.647708654E-2,4.724616708E0
9.781277000E0,-3.572569461E-1,4.573297981E0,1.164496386E-1,4.588708693E0
9.791249000E0,-3.549565418E-1,4.411877992E0,1.659603159E-1,4.429244223E0
9.801221000E0,-3.947600006E-1,4.235282139E0,1.909291327E-1,4.257922520E0
9.811192000E0,-4.001292794E-1,4.051921057E0,2.215112400E-1,4.077650662E0
9.821164000E0,-3.943297186E-1,3.851015990E0,2.270848060E-1,3.877807059E0
9.831136000E0,-4.093839965E-1,3.647682574E0,2.238921897E-1,3.677405489E0
9.841107000E0,-4.125157652E-1,3.433369256E0,2.263048239E-1,3.465459216E0
9.851079000E0,-3.824464953E-1,3.172130864E0,2.013839908E-1,3.201442651E0
9.861051000E0,-3.972994463E-1,2.924088467E0,1.894568403E-1,2.957031300E0
9.871022000E0,-4.251054784E-1,2.687863294E0,1.884990664E-1,2.727793184E0
9.880994000E0,-4.091767493E-1,2.393512704E0,1.935592103E-1,2.435937980E0
9.890966000E0,-4.129919844E-1,2.104785381E0,2.110598537E-1,2.155279597E0
9.900937000E0,-4.670781445E-1,1.834404867E0,2.172684272E-1,1.905363162E0
9.910909000E0,-4.725911918E-1,1.530128043E0,2.602407845E-1,1.622454785E0
9.920881000E0,-4.669997552E-1,1.223117062E0,2.957416427E-1,1.342224734E0
9.930852000E0,-4.800793188E-1,9.437710118E-1,3.099877989E-1,1.103300644E0
9.940824000E0,-5.159075115E-1,6.287908602E-1,3.347449831E-1,8.795411929E-1
9.950796000E0,-5.479404592E-1,3.020098579E-1,3.873137176E-1,7.358400756E-1
9.960767000E0,-5.259567190E-1,3.731693029E-3,4.280067571E-1,6.781107431E-1
9.970739000E0,-5.535234172E-1,-2.931238443E-1,4.301866722E-1,7.598488892E-1
9.980711000E0,-5.620766146E-1,-6.083162498E-1,4.407081886E-1,9.381910723E-1
9.990682000E0,-5.398340256E-1,-9.240401673E-1,4.591397818E-1,1.164508628E0
1.000065400E1,-5.439518541E-1,-1.200478982E0,4.805779767E-1,1.402850169E0